ACC_X,ACC_Y,ACC_Z,GYR_X,GYR_Y,GYR_Z,Angle_ROL,Angle_PIT,Angle_YAW
-6491,-5480,1797,0,0,0,23.6599998474121,-36.97999954,-77.09999847
-6491,-5480,1797,0,0,0,23.6599998474121,-36.97999954,-77.09999847
-6491,-5480,1797,0,0,0,23.6599998474121,-36.97999954,-77.09999847
-6491,-5480,1797,0,0,0,23.6599998474121,-36.97999954,-77.09999847
-6491,-5480,1797,0,0,0,23.6599998474121,-36.97999954,-77.09999847
-3934,-4431,3166,0,0,0,23.6599998474121,-36.97999954,-77.09999847
-3934,-4431,3166,0,0,0,23.6599998474121,-36.97999954,-77.09999847
-3934,-4431,3166,0,0,0,23.6599998474121,-36.97999954,-77.09999847
-3934,-4431,3166,0,0,0,23.6599998474121,-36.97999954,-77.09999847
-3934,-4431,3166,0,0,0,23.6599998474121,-36.97999954,-77.09999847
-3934,-4431,3166,0,0,0,23.6599998474121,-36.97999954,-77.09999847
-3934,-4431,3166,0,0,0,23.6599998474121,-36.97999954,-77.09999847
-3705,-4068,3221,0,0,0,23.6599998474121,-36.97999954,-77.09999847
-3705,-4068,3221,0,0,0,23.6599998474121,-36.97999954,-77.09999847
-3705,-4068,3221,0,0,0,23.6599998474121,-36.97999954,-77.09999847
-3705,-4068,3221,0,0,0,23.6599998474121,-36.97999954,-77.09999847
-3705,-4068,3221,0,0,0,23.6599998474121,-36.97999954,-77.09999847
-3705,-4068,3221,0,0,0,23.6599998474121,-36.97999954,-77.09999847
-3339,-4861,3462,0,0,0,23.6599998474121,-36.97999954,-77.09999847
-3339,-4861,3462,0,0,0,23.6599998474121,-36.97999954,-77.09999847
-3339,-4861,3462,0,0,0,23.6599998474121,-36.97999954,-77.09999847
-3339,-4861,3462,0,0,0,23.6599998474121,-36.97999954,-77.09999847
-3339,-4861,3462,0,0,0,23.6599998474121,-36.97999954,-77.09999847
-3339,-4861,3462,0,0,0,23.6599998474121,-36.97999954,-77.09999847
-3339,-4861,3462,0,0,0,23.6599998474121,-36.97999954,-77.09999847
-3339,-4861,3462,0,0,0,23.6599998474121,-36.97999954,-77.09999847
-2326,-3755,4581,0,0,0,23.6599998474121,-36.97999954,-77.09999847
-2326,-3755,4581,0,0,0,23.6599998474121,-36.97999954,-77.09999847
-2326,-3755,4581,0,0,0,23.6599998474121,-36.97999954,-77.09999847
-2326,-3755,4581,0,0,0,23.6599998474121,-36.97999954,-77.09999847
-2326,-3755,4581,0,0,0,23.6599998474121,-36.97999954,-77.09999847
-2326,-3755,4581,0,0,0,23.6599998474121,-36.97999954,-77.09999847
-4166,-5146,2994,0,0,0,23.6599998474121,-36.97999954,-77.09999847
-4166,-5146,2994,0,0,0,23.6599998474121,-36.97999954,-77.09999847
-4166,-5146,2994,0,0,0,23.6599998474121,-36.97999954,-77.09999847
-4166,-5146,2994,0,0,0,23.6599998474121,-36.97999954,-77.09999847
-4166,-5146,2994,0,0,0,23.6599998474121,-36.97999954,-77.09999847
-4166,-5146,2994,0,0,0,23.6599998474121,-36.97999954,-77.09999847
-4166,-5146,2994,0,0,0,23.6599998474121,-36.97999954,-77.09999847
-2992,-3374,4280,0,0,0,23.6599998474121,-36.97999954,-77.09999847
-2992,-3374,4280,0,0,0,23.6599998474121,-36.97999954,-77.09999847
-2992,-3374,4280,0,0,0,23.6599998474121,-36.97999954,-77.09999847
-2992,-3374,4280,0,0,0,23.6599998474121,-36.97999954,-77.09999847
-2992,-3374,4280,0,0,0,23.6599998474121,-36.97999954,-77.09999847
-2992,-3374,4280,0,0,0,23.6599998474121,-36.97999954,-77.09999847
-2992,-3374,4280,0,0,0,23.6599998474121,-36.97999954,-77.09999847
-3452,-4307,4696,0,0,0,23.6599998474121,-36.97999954,-77.09999847
-3452,-4307,4696,0,0,0,23.6599998474121,-36.97999954,-77.09999847
-3452,-4307,4696,0,0,0,23.6599998474121,-36.97999954,-77.09999847
-3452,-4307,4696,0,0,0,23.6599998474121,-36.97999954,-77.09999847
-3452,-4307,4696,0,0,0,23.6599998474121,-36.97999954,-77.09999847
-3452,-4307,4696,0,0,0,23.6599998474121,-36.97999954,-77.09999847
-3452,-4307,4696,0,0,0,23.6599998474121,-36.97999954,-77.09999847
-2881,-2844,4611,0,0,0,23.6599998474121,-36.97999954,-77.09999847
-2881,-2844,4611,0,0,0,23.6599998474121,-36.97999954,-77.09999847
-2881,-2844,4611,0,0,0,23.6599998474121,-36.97999954,-77.09999847
-2881,-2844,4611,0,0,0,23.6599998474121,-36.97999954,-77.09999847
-2881,-2844,4611,0,0,0,23.6599998474121,-36.97999954,-77.09999847
-2881,-2844,4611,0,0,0,23.6599998474121,-36.97999954,-77.09999847
-2881,-2844,4611,0,0,0,23.6599998474121,-36.97999954,-77.09999847
-3533,-3638,4624,0,0,0,23.6599998474121,-36.97999954,-77.09999847
-3533,-3638,4624,0,0,0,23.6599998474121,-36.97999954,-77.09999847
-3533,-3638,4624,0,0,0,23.6599998474121,-36.97999954,-77.09999847
-3533,-3638,4624,0,0,0,23.6599998474121,-36.97999954,-77.09999847
-3533,-3638,4624,0,0,0,23.6599998474121,-36.97999954,-77.09999847
-3533,-3638,4624,0,0,0,23.6599998474121,-36.97999954,-77.09999847
-3533,-3638,4624,0,0,0,23.6599998474121,-36.97999954,-77.09999847
-3276,-4831,2544,0,0,0,23.6599998474121,-36.97999954,-77.09999847
-3276,-4831,2544,0,0,0,23.6599998474121,-36.97999954,-77.09999847
-3276,-4831,2544,0,0,0,23.6599998474121,-36.97999954,-77.09999847
-3276,-4831,2544,0,0,0,23.6599998474121,-36.97999954,-77.09999847
-3276,-4831,2544,0,0,0,23.6599998474121,-36.97999954,-77.09999847
-3276,-4831,2544,0,0,0,23.6599998474121,-36.97999954,-77.09999847
-3276,-4831,2544,0,0,0,23.6599998474121,-36.97999954,-77.09999847
-3276,-4831,2544,0,0,0,38.6699981689453,-42.97000122,-54.56000137
-3283,-3446,1749,0,0,0,38.6699981689453,-42.97000122,-54.56000137
-3283,-3446,1749,0,0,0,38.6699981689453,-42.97000122,-54.56000137
-3283,-3446,1749,0,0,0,38.6699981689453,-42.97000122,-54.56000137
-3283,-3446,1749,0,0,0,38.6699981689453,-42.97000122,-54.56000137
-3283,-3446,1749,0,0,0,38.6699981689453,-42.97000122,-54.56000137
-3283,-3446,1749,0,0,0,38.6699981689453,-42.97000122,-54.56000137
-4928,-3554,1945,0,0,0,38.6699981689453,-42.97000122,-54.56000137
-4928,-3554,1945,0,0,0,38.6699981689453,-42.97000122,-54.56000137
-4928,-3554,1945,0,0,0,38.6699981689453,-42.97000122,-54.56000137
-4928,-3554,1945,0,0,0,38.6699981689453,-42.97000122,-54.56000137
-4928,-3554,1945,0,0,0,38.6699981689453,-42.97000122,-54.56000137
-4928,-3554,1945,0,0,0,38.6699981689453,-42.97000122,-54.56000137
-4928,-3554,1945,0,0,0,38.6699981689453,-42.97000122,-54.56000137
-4381,-2486,4301,0,0,0,38.6699981689453,-42.97000122,-54.56000137
-4381,-2486,4301,0,0,0,38.6699981689453,-42.97000122,-54.56000137
-4381,-2486,4301,0,0,0,38.6699981689453,-42.97000122,-54.56000137
-4381,-2486,4301,0,0,0,38.6699981689453,-42.97000122,-54.56000137
-4381,-2486,4301,0,0,0,38.6699981689453,-42.97000122,-54.56000137
-4381,-2486,4301,0,0,0,38.6699981689453,-42.97000122,-54.56000137
-4381,-2486,4301,0,0,0,38.6699981689453,-42.97000122,-54.56000137
-3707,-2812,1577,0,0,0,38.6699981689453,-42.97000122,-54.56000137
-3707,-2812,1577,0,0,0,38.6699981689453,-42.97000122,-54.56000137
-3707,-2812,1577,0,0,0,38.6699981689453,-42.97000122,-54.56000137
-3707,-2812,1577,0,0,0,38.6699981689453,-42.97000122,-54.56000137
-3707,-2812,1577,0,0,0,38.6699981689453,-42.97000122,-54.56000137
-3707,-2812,1577,0,0,0,38.6699981689453,-42.97000122,-54.56000137
-3707,-2812,1577,0,0,0,38.6699981689453,-42.97000122,-54.56000137
-2993,-2987,2661,0,0,0,38.6699981689453,-42.97000122,-54.56000137
-2993,-2987,2661,0,0,0,38.6699981689453,-42.97000122,-54.56000137
-2993,-2987,2661,0,0,0,38.6699981689453,-42.97000122,-54.56000137
-2993,-2987,2661,0,0,0,38.6699981689453,-42.97000122,-54.56000137
-2993,-2987,2661,0,0,0,38.6699981689453,-42.97000122,-54.56000137
-2993,-2987,2661,0,0,0,38.6699981689453,-42.97000122,-54.56000137
-2993,-2987,2661,0,0,0,38.6699981689453,-42.97000122,-54.56000137
-3523,-1450,2230,0,-57,0,38.6699981689453,-42.97000122,-54.56000137
-3523,-1450,2230,0,-57,0,38.6699981689453,-42.97000122,-54.56000137
-3523,-1450,2230,0,-57,0,38.6699981689453,-42.97000122,-54.56000137
-3523,-1450,2230,0,-57,0,38.6699981689453,-42.97000122,-54.56000137
-3523,-1450,2230,0,-57,0,38.6699981689453,-42.97000122,-54.56000137
-3523,-1450,2230,0,-57,0,38.6699981689453,-42.97000122,-54.56000137
-3523,-1450,2230,0,-57,0,38.6699981689453,-42.97000122,-54.56000137
-3353,-2709,1278,0,-57,0,38.6699981689453,-42.97000122,-54.56000137
-3353,-2709,1278,0,-57,0,38.6699981689453,-42.97000122,-54.56000137
-3353,-2709,1278,0,-57,0,38.6699981689453,-42.97000122,-54.56000137
-3353,-2709,1278,0,-57,0,38.6699981689453,-42.97000122,-54.56000137
-3353,-2709,1278,0,-57,0,38.6699981689453,-42.97000122,-54.56000137
-3353,-2709,1278,0,-57,0,38.6699981689453,-42.97000122,-54.56000137
-3353,-2709,1278,0,-57,0,38.6699981689453,-42.97000122,-54.56000137
-1040,-806,4287,0,-57,0,38.6699981689453,-42.97000122,-54.56000137
-1040,-806,4287,0,-57,0,38.6699981689453,-42.97000122,-54.56000137
-1040,-806,4287,0,-57,0,38.6699981689453,-42.97000122,-54.56000137
-1040,-806,4287,0,-57,0,38.6699981689453,-42.97000122,-54.56000137
-1040,-806,4287,0,-57,0,38.6699981689453,-42.97000122,-54.56000137
-1040,-806,4287,0,-57,0,38.6699981689453,-42.97000122,-54.56000137
-1040,-806,4287,0,-57,0,38.6699981689453,-42.97000122,-54.56000137
-1737,-1471,1325,0,-57,0,38.6699981689453,-42.97000122,-54.56000137
-1737,-1471,1325,0,-57,0,38.6699981689453,-42.97000122,-54.56000137
-1737,-1471,1325,0,-57,0,38.6699981689453,-42.97000122,-54.56000137
-1737,-1471,1325,0,-57,0,38.6699981689453,-42.97000122,-54.56000137
-1737,-1471,1325,0,-57,0,38.6699981689453,-42.97000122,-54.56000137
-1737,-1471,1325,0,-57,0,38.6699981689453,-42.97000122,-54.56000137
-1207,-1299,3234,0,0,0,38.6699981689453,-42.97000122,-54.56000137
-1207,-1299,3234,0,0,0,38.6699981689453,-42.97000122,-54.56000137
-1207,-1299,3234,0,0,0,38.6699981689453,-42.97000122,-54.56000137
-1207,-1299,3234,0,0,0,38.6699981689453,-42.97000122,-54.56000137
-1207,-1299,3234,0,0,0,38.6699981689453,-42.97000122,-54.56000137
-1207,-1299,3234,0,0,0,38.6699981689453,-42.97000122,-54.56000137
-1207,-1299,3234,0,0,0,38.6699981689453,-42.97000122,-54.56000137
-1203,-1876,3718,0,0,0,38.6699981689453,-42.97000122,-54.56000137
-1203,-1876,3718,0,0,0,38.6699981689453,-42.97000122,-54.56000137
-1203,-1876,3718,0,0,0,38.6699981689453,-42.97000122,-54.56000137
-1203,-1876,3718,0,0,0,38.6699981689453,-42.97000122,-54.56000137
-1203,-1876,3718,0,0,0,38.6699981689453,-42.97000122,-54.56000137
-1203,-1876,3718,0,0,0,38.6699981689453,-42.97000122,-54.56000137
-1203,-1876,3718,0,0,0,38.6699981689453,-42.97000122,-54.56000137
-1203,-1876,3718,0,0,0,31.0599994659424,-41.70999908,-72.69999695
-1203,-1876,3718,0,0,0,31.0599994659424,-41.70999908,-72.69999695
-727,-2295,4142,0,0,0,31.0599994659424,-41.70999908,-72.69999695
-727,-2295,4142,0,0,0,31.0599994659424,-41.70999908,-72.69999695
-727,-2295,4142,0,0,0,31.0599994659424,-41.70999908,-72.69999695
-727,-2295,4142,0,0,0,31.0599994659424,-41.70999908,-72.69999695
-727,-2295,4142,0,0,0,31.0599994659424,-41.70999908,-72.69999695
-631,-1780,4021,0,0,0,31.0599994659424,-41.70999908,-72.69999695
-631,-1780,4021,0,0,0,31.0599994659424,-41.70999908,-72.69999695
-631,-1780,4021,0,0,0,31.0599994659424,-41.70999908,-72.69999695
-631,-1780,4021,0,0,0,31.0599994659424,-41.70999908,-72.69999695
-631,-1780,4021,0,0,0,31.0599994659424,-41.70999908,-72.69999695
-631,-1780,4021,0,0,0,31.0599994659424,-41.70999908,-72.69999695
-631,-1780,4021,0,0,0,31.0599994659424,-41.70999908,-72.69999695
-1651,-2026,1156,0,0,0,31.0599994659424,-41.70999908,-72.69999695
-1651,-2026,1156,0,0,0,31.0599994659424,-41.70999908,-72.69999695
-1651,-2026,1156,0,0,0,31.0599994659424,-41.70999908,-72.69999695
-1651,-2026,1156,0,0,0,31.0599994659424,-41.70999908,-72.69999695
-1651,-2026,1156,0,0,0,31.0599994659424,-41.70999908,-72.69999695
-1651,-2026,1156,0,0,0,31.0599994659424,-41.70999908,-72.69999695
-1651,-2026,1156,0,0,0,31.0599994659424,-41.70999908,-72.69999695
-343,-2396,1339,0,0,0,31.0599994659424,-41.70999908,-72.69999695
-343,-2396,1339,0,0,0,31.0599994659424,-41.70999908,-72.69999695
-343,-2396,1339,0,0,0,31.0599994659424,-41.70999908,-72.69999695
-343,-2396,1339,0,0,0,31.0599994659424,-41.70999908,-72.69999695
-343,-2396,1339,0,0,0,31.0599994659424,-41.70999908,-72.69999695
-343,-2396,1339,0,0,0,31.0599994659424,-41.70999908,-72.69999695
-343,-2396,1339,0,0,0,31.0599994659424,-41.70999908,-72.69999695
-580,-3181,1220,0,0,0,31.0599994659424,-41.70999908,-72.69999695
-580,-3181,1220,0,0,0,31.0599994659424,-41.70999908,-72.69999695
-580,-3181,1220,0,0,0,31.0599994659424,-41.70999908,-72.69999695
-580,-3181,1220,0,0,0,31.0599994659424,-41.70999908,-72.69999695
-580,-3181,1220,0,0,0,31.0599994659424,-41.70999908,-72.69999695
-580,-3181,1220,0,0,0,31.0599994659424,-41.70999908,-72.69999695
-580,-3181,1220,0,0,0,31.0599994659424,-41.70999908,-72.69999695
33,-3113,2390,0,0,0,31.0599994659424,-41.70999908,-72.69999695
33,-3113,2390,0,0,0,31.0599994659424,-41.70999908,-72.69999695
33,-3113,2390,0,0,0,31.0599994659424,-41.70999908,-72.69999695
33,-3113,2390,0,0,0,31.0599994659424,-41.70999908,-72.69999695
33,-3113,2390,0,0,0,31.0599994659424,-41.70999908,-72.69999695
33,-3113,2390,0,0,0,31.0599994659424,-41.70999908,-72.69999695
33,-3113,2390,0,0,0,31.0599994659424,-41.70999908,-72.69999695
506,-3451,3413,0,0,0,31.0599994659424,-41.70999908,-72.69999695
506,-3451,3413,0,0,0,31.0599994659424,-41.70999908,-72.69999695
506,-3451,3413,0,0,0,31.0599994659424,-41.70999908,-72.69999695
506,-3451,3413,0,0,0,31.0599994659424,-41.70999908,-72.69999695
506,-3451,3413,0,0,0,31.0599994659424,-41.70999908,-72.69999695
506,-3451,3413,0,0,0,31.0599994659424,-41.70999908,-72.69999695
-1360,-4148,1244,0,0,0,31.0599994659424,-41.70999908,-72.69999695
-1360,-4148,1244,0,0,0,31.0599994659424,-41.70999908,-72.69999695
-1360,-4148,1244,0,0,0,31.0599994659424,-41.70999908,-72.69999695
-1360,-4148,1244,0,0,0,31.0599994659424,-41.70999908,-72.69999695
-1360,-4148,1244,0,0,0,31.0599994659424,-41.70999908,-72.69999695
-1360,-4148,1244,0,0,0,31.0599994659424,-41.70999908,-72.69999695
-1360,-4148,1244,0,0,0,31.0599994659424,-41.70999908,-72.69999695
-1360,-4148,1244,0,0,0,31.0599994659424,-41.70999908,-72.69999695
-113,-3635,3615,0,0,0,31.0599994659424,-41.70999908,-72.69999695
-113,-3635,3615,0,0,0,31.0599994659424,-41.70999908,-72.69999695
-113,-3635,3615,0,0,0,31.0599994659424,-41.70999908,-72.69999695
-113,-3635,3615,0,0,0,31.0599994659424,-41.70999908,-72.69999695
-113,-3635,3615,0,0,0,31.0599994659424,-41.70999908,-72.69999695
-113,-3635,3615,0,0,0,31.0599994659424,-41.70999908,-72.69999695
-409,-5037,3766,0,0,0,31.0599994659424,-41.70999908,-72.69999695
-409,-5037,3766,0,0,0,31.0599994659424,-41.70999908,-72.69999695
-409,-5037,3766,0,0,0,31.0599994659424,-41.70999908,-72.69999695
-409,-5037,3766,0,0,0,31.0599994659424,-41.70999908,-72.69999695
-409,-5037,3766,0,0,0,31.0599994659424,-41.70999908,-72.69999695
-409,-5037,3766,0,0,0,31.0599994659424,-41.70999908,-72.69999695
-409,-5037,3766,0,0,0,31.0599994659424,-41.70999908,-72.69999695
-414,-4903,3424,0,0,0,31.0599994659424,-41.70999908,-72.69999695
-414,-4903,3424,0,0,0,31.0599994659424,-41.70999908,-72.69999695
-414,-4903,3424,0,0,0,31.0599994659424,-41.70999908,-72.69999695
-414,-4903,3424,0,0,0,31.0599994659424,-41.70999908,-72.69999695
-414,-4903,3424,0,0,0,31.0599994659424,-41.70999908,-72.69999695
-414,-4903,3424,0,0,0,31.0599994659424,-41.70999908,-72.69999695
-414,-4903,3424,0,0,0,31.0599994659424,-41.70999908,-72.69999695
-414,-4903,3424,0,0,0,28.4300003051758,-47.59000015,-74.12999725
152,-4216,4730,0,0,0,28.4300003051758,-47.59000015,-74.12999725
152,-4216,4730,0,0,0,28.4300003051758,-47.59000015,-74.12999725
152,-4216,4730,0,0,0,28.4300003051758,-47.59000015,-74.12999725
152,-4216,4730,0,0,0,28.4300003051758,-47.59000015,-74.12999725
152,-4216,4730,0,0,0,28.4300003051758,-47.59000015,-74.12999725
152,-4216,4730,0,0,0,28.4300003051758,-47.59000015,-74.12999725
39,-3708,4917,0,0,0,28.4300003051758,-47.59000015,-74.12999725
39,-3708,4917,0,0,0,28.4300003051758,-47.59000015,-74.12999725
39,-3708,4917,0,0,0,28.4300003051758,-47.59000015,-74.12999725
39,-3708,4917,0,0,0,28.4300003051758,-47.59000015,-74.12999725
39,-3708,4917,0,0,0,28.4300003051758,-47.59000015,-74.12999725
39,-3708,4917,0,0,0,28.4300003051758,-47.59000015,-74.12999725
-110,-2435,4706,0,0,0,28.4300003051758,-47.59000015,-74.12999725
-110,-2435,4706,0,0,0,28.4300003051758,-47.59000015,-74.12999725
-110,-2435,4706,0,0,0,28.4300003051758,-47.59000015,-74.12999725
-110,-2435,4706,0,0,0,28.4300003051758,-47.59000015,-74.12999725
-110,-2435,4706,0,0,0,28.4300003051758,-47.59000015,-74.12999725
-110,-2435,4706,0,0,0,28.4300003051758,-47.59000015,-74.12999725
-110,-2435,4706,0,0,0,28.4300003051758,-47.59000015,-74.12999725
-110,-2435,4706,0,0,0,28.4300003051758,-47.59000015,-74.12999725
-778,-3398,3159,0,0,0,28.4300003051758,-47.59000015,-74.12999725
-778,-3398,3159,0,0,0,28.4300003051758,-47.59000015,-74.12999725
-778,-3398,3159,0,0,0,28.4300003051758,-47.59000015,-74.12999725
-778,-3398,3159,0,0,0,28.4300003051758,-47.59000015,-74.12999725
-778,-3398,3159,0,0,0,28.4300003051758,-47.59000015,-74.12999725
-778,-3398,3159,0,0,0,28.4300003051758,-47.59000015,-74.12999725
1086,-3231,4310,0,0,0,28.4300003051758,-47.59000015,-74.12999725
1086,-3231,4310,0,0,0,28.4300003051758,-47.59000015,-74.12999725
1086,-3231,4310,0,0,0,28.4300003051758,-47.59000015,-74.12999725
1086,-3231,4310,0,0,0,28.4300003051758,-47.59000015,-74.12999725
1086,-3231,4310,0,0,0,28.4300003051758,-47.59000015,-74.12999725
1086,-3231,4310,0,0,0,28.4300003051758,-47.59000015,-74.12999725
1086,-3231,4310,0,0,0,28.4300003051758,-47.59000015,-74.12999725
444,-3514,2904,0,0,0,28.4300003051758,-47.59000015,-74.12999725
444,-3514,2904,0,0,0,28.4300003051758,-47.59000015,-74.12999725
444,-3514,2904,0,0,0,28.4300003051758,-47.59000015,-74.12999725
444,-3514,2904,0,0,0,28.4300003051758,-47.59000015,-74.12999725
444,-3514,2904,0,0,0,28.4300003051758,-47.59000015,-74.12999725
444,-3514,2904,0,0,0,28.4300003051758,-47.59000015,-74.12999725
444,-3514,2904,0,0,0,28.4300003051758,-47.59000015,-74.12999725
-194,-3989,2324,0,0,0,28.4300003051758,-47.59000015,-74.12999725
-194,-3989,2324,0,0,0,28.4300003051758,-47.59000015,-74.12999725
-194,-3989,2324,0,0,0,28.4300003051758,-47.59000015,-74.12999725
-194,-3989,2324,0,0,0,28.4300003051758,-47.59000015,-74.12999725
-194,-3989,2324,0,0,0,28.4300003051758,-47.59000015,-74.12999725
-194,-3989,2324,0,0,0,28.4300003051758,-47.59000015,-74.12999725
-194,-3989,2324,0,0,0,28.4300003051758,-47.59000015,-74.12999725
-895,-3608,1607,0,0,0,28.4300003051758,-47.59000015,-74.12999725
-895,-3608,1607,0,0,0,28.4300003051758,-47.59000015,-74.12999725
-895,-3608,1607,0,0,0,28.4300003051758,-47.59000015,-74.12999725
-895,-3608,1607,0,0,0,28.4300003051758,-47.59000015,-74.12999725
-895,-3608,1607,0,0,0,28.4300003051758,-47.59000015,-74.12999725
-895,-3608,1607,0,0,0,28.4300003051758,-47.59000015,-74.12999725
-895,-3608,1607,0,0,0,28.4300003051758,-47.59000015,-74.12999725
-1496,-4756,-371,0,0,0,28.4300003051758,-47.59000015,-74.12999725
-1496,-4756,-371,0,0,0,28.4300003051758,-47.59000015,-74.12999725
-1496,-4756,-371,0,0,0,28.4300003051758,-47.59000015,-74.12999725
-1496,-4756,-371,0,0,0,28.4300003051758,-47.59000015,-74.12999725
-1496,-4756,-371,0,0,0,28.4300003051758,-47.59000015,-74.12999725
-1496,-4756,-371,0,0,0,28.4300003051758,-47.59000015,-74.12999725
-1496,-4756,-371,0,0,0,28.4300003051758,-47.59000015,-74.12999725
-1129,-3613,1272,0,0,0,28.4300003051758,-47.59000015,-74.12999725
-1129,-3613,1272,0,0,0,28.4300003051758,-47.59000015,-74.12999725
-1129,-3613,1272,0,0,0,28.4300003051758,-47.59000015,-74.12999725
-1129,-3613,1272,0,0,0,28.4300003051758,-47.59000015,-74.12999725
-1129,-3613,1272,0,0,0,28.4300003051758,-47.59000015,-74.12999725
-1129,-3613,1272,0,0,0,28.4300003051758,-47.59000015,-74.12999725
-1126,-4622,2001,0,0,0,28.4300003051758,-47.59000015,-74.12999725
-1126,-4622,2001,0,0,0,28.4300003051758,-47.59000015,-74.12999725
-1126,-4622,2001,0,0,0,28.4300003051758,-47.59000015,-74.12999725
-1126,-4622,2001,0,0,0,28.4300003051758,-47.59000015,-74.12999725
-1126,-4622,2001,0,0,0,28.4300003051758,-47.59000015,-74.12999725
-1126,-4622,2001,0,0,0,28.4300003051758,-47.59000015,-74.12999725
-1126,-4622,2001,0,0,0,28.4300003051758,-47.59000015,-74.12999725
-1126,-4622,2001,0,0,0,28.4300003051758,-47.59000015,-74.12999725
-1126,-4622,2001,0,0,0,31.4200000762939,-51.90999985,-71.08999634
-1120,-3996,3097,0,57,0,31.4200000762939,-51.90999985,-71.08999634
-1120,-3996,3097,0,57,0,31.4200000762939,-51.90999985,-71.08999634
-1120,-3996,3097,0,57,0,31.4200000762939,-51.90999985,-71.08999634
-1120,-3996,3097,0,57,0,31.4200000762939,-51.90999985,-71.08999634
-1120,-3996,3097,0,57,0,31.4200000762939,-51.90999985,-71.08999634
-1120,-3996,3097,0,57,0,31.4200000762939,-51.90999985,-71.08999634
-1231,-2556,4508,0,0,0,31.4200000762939,-51.90999985,-71.08999634
-1231,-2556,4508,0,0,0,31.4200000762939,-51.90999985,-71.08999634
-1231,-2556,4508,0,0,0,31.4200000762939,-51.90999985,-71.08999634
-1231,-2556,4508,0,0,0,31.4200000762939,-51.90999985,-71.08999634
-1231,-2556,4508,0,0,0,31.4200000762939,-51.90999985,-71.08999634
-1231,-2556,4508,0,0,0,31.4200000762939,-51.90999985,-71.08999634
-2260,-3451,2212,0,0,0,31.4200000762939,-51.90999985,-71.08999634
-2260,-3451,2212,0,0,0,31.4200000762939,-51.90999985,-71.08999634
-2260,-3451,2212,0,0,0,31.4200000762939,-51.90999985,-71.08999634
-2260,-3451,2212,0,0,0,31.4200000762939,-51.90999985,-71.08999634
-2260,-3451,2212,0,0,0,31.4200000762939,-51.90999985,-71.08999634
-2260,-3451,2212,0,0,0,31.4200000762939,-51.90999985,-71.08999634
-2260,-3451,2212,0,0,0,31.4200000762939,-51.90999985,-71.08999634
-2372,-1982,2548,0,0,0,31.4200000762939,-51.90999985,-71.08999634
-2372,-1982,2548,0,0,0,31.4200000762939,-51.90999985,-71.08999634
-2372,-1982,2548,0,0,0,31.4200000762939,-51.90999985,-71.08999634
-2372,-1982,2548,0,0,0,31.4200000762939,-51.90999985,-71.08999634
-2372,-1982,2548,0,0,0,31.4200000762939,-51.90999985,-71.08999634
-2372,-1982,2548,0,0,0,31.4200000762939,-51.90999985,-71.08999634
-2372,-1982,2548,0,0,0,31.4200000762939,-51.90999985,-71.08999634
-4497,-2912,49,0,0,0,31.4200000762939,-51.90999985,-71.08999634
-4497,-2912,49,0,0,0,31.4200000762939,-51.90999985,-71.08999634
-4497,-2912,49,0,0,0,31.4200000762939,-51.90999985,-71.08999634
-4497,-2912,49,0,0,0,31.4200000762939,-51.90999985,-71.08999634
-4497,-2912,49,0,0,0,31.4200000762939,-51.90999985,-71.08999634
-4497,-2912,49,0,0,0,31.4200000762939,-51.90999985,-71.08999634
-4497,-2912,49,0,0,0,31.4200000762939,-51.90999985,-71.08999634
-3893,-2603,3063,0,0,0,31.4200000762939,-51.90999985,-71.08999634
-3893,-2603,3063,0,0,0,31.4200000762939,-51.90999985,-71.08999634
-3893,-2603,3063,0,0,0,31.4200000762939,-51.90999985,-71.08999634
-3893,-2603,3063,0,0,0,31.4200000762939,-51.90999985,-71.08999634
-3893,-2603,3063,0,0,0,31.4200000762939,-51.90999985,-71.08999634
-3893,-2603,3063,0,0,0,31.4200000762939,-51.90999985,-71.08999634
-3893,-2603,3063,0,0,0,31.4200000762939,-51.90999985,-71.08999634
-4917,-2713,933,0,0,0,31.4200000762939,-51.90999985,-71.08999634
-4917,-2713,933,0,0,0,31.4200000762939,-51.90999985,-71.08999634
-4917,-2713,933,0,0,0,31.4200000762939,-51.90999985,-71.08999634
-4917,-2713,933,0,0,0,31.4200000762939,-51.90999985,-71.08999634
-4917,-2713,933,0,0,0,31.4200000762939,-51.90999985,-71.08999634
-4917,-2713,933,0,0,0,31.4200000762939,-51.90999985,-71.08999634
-4917,-2713,933,0,0,0,31.4200000762939,-51.90999985,-71.08999634
-5300,-3061,-798,0,0,0,31.4200000762939,-51.90999985,-71.08999634
-5300,-3061,-798,0,0,0,31.4200000762939,-51.90999985,-71.08999634
-5300,-3061,-798,0,0,0,31.4200000762939,-51.90999985,-71.08999634
-5300,-3061,-798,0,0,0,31.4200000762939,-51.90999985,-71.08999634
-5300,-3061,-798,0,0,0,31.4200000762939,-51.90999985,-71.08999634
-5300,-3061,-798,0,0,0,31.4200000762939,-51.90999985,-71.08999634
-5300,-3061,-798,0,0,0,31.4200000762939,-51.90999985,-71.08999634
-4734,-1117,737,0,0,0,31.4200000762939,-51.90999985,-71.08999634
-4734,-1117,737,0,0,0,31.4200000762939,-51.90999985,-71.08999634
-4734,-1117,737,0,0,0,31.4200000762939,-51.90999985,-71.08999634
-4734,-1117,737,0,0,0,31.4200000762939,-51.90999985,-71.08999634
-4734,-1117,737,0,0,0,31.4200000762939,-51.90999985,-71.08999634
-4734,-1117,737,0,0,0,31.4200000762939,-51.90999985,-71.08999634
-4734,-1117,737,0,0,0,31.4200000762939,-51.90999985,-71.08999634
-4855,-3455,88,0,0,0,31.4200000762939,-51.90999985,-71.08999634
-4855,-3455,88,0,0,0,31.4200000762939,-51.90999985,-71.08999634
-4855,-3455,88,0,0,0,31.4200000762939,-51.90999985,-71.08999634
-4855,-3455,88,0,0,0,31.4200000762939,-51.90999985,-71.08999634
-4855,-3455,88,0,0,0,31.4200000762939,-51.90999985,-71.08999634
-4855,-3455,88,0,0,0,31.4200000762939,-51.90999985,-71.08999634
-4855,-3455,88,0,0,0,31.4200000762939,-51.90999985,-71.08999634
-3828,-2358,2537,0,0,0,31.4200000762939,-51.90999985,-71.08999634
-3828,-2358,2537,0,0,0,31.4200000762939,-51.90999985,-71.08999634
-3828,-2358,2537,0,0,0,31.4200000762939,-51.90999985,-71.08999634
-3828,-2358,2537,0,0,0,31.4200000762939,-51.90999985,-71.08999634
-3828,-2358,2537,0,0,0,31.4200000762939,-51.90999985,-71.08999634
-3828,-2358,2537,0,0,0,31.4200000762939,-51.90999985,-71.08999634
-3828,-2358,2537,0,0,0,31.4200000762939,-51.90999985,-71.08999634
-3828,-2358,2537,0,0,0,37.1699981689453,-55.43000031,-36.74000168
-4490,-2982,1555,0,0,0,37.1699981689453,-55.43000031,-36.74000168
-4490,-2982,1555,0,0,0,37.1699981689453,-55.43000031,-36.74000168
-4490,-2982,1555,0,0,0,37.1699981689453,-55.43000031,-36.74000168
-4490,-2982,1555,0,0,0,37.1699981689453,-55.43000031,-36.74000168
-4490,-2982,1555,0,0,0,37.1699981689453,-55.43000031,-36.74000168
-4490,-2982,1555,0,0,0,37.1699981689453,-55.43000031,-36.74000168
-3715,-2062,3073,0,0,0,37.1699981689453,-55.43000031,-36.74000168
-3715,-2062,3073,0,0,0,37.1699981689453,-55.43000031,-36.74000168
-3715,-2062,3073,0,0,0,37.1699981689453,-55.43000031,-36.74000168
-3715,-2062,3073,0,0,0,37.1699981689453,-55.43000031,-36.74000168
-3715,-2062,3073,0,0,0,37.1699981689453,-55.43000031,-36.74000168
-3715,-2062,3073,0,0,0,37.1699981689453,-55.43000031,-36.74000168
-3715,-2062,3073,0,0,0,37.1699981689453,-55.43000031,-36.74000168
-4446,-1628,3140,0,0,0,37.1699981689453,-55.43000031,-36.74000168
-4446,-1628,3140,0,0,0,37.1699981689453,-55.43000031,-36.74000168
-4446,-1628,3140,0,0,0,37.1699981689453,-55.43000031,-36.74000168
-4446,-1628,3140,0,0,0,37.1699981689453,-55.43000031,-36.74000168
-4446,-1628,3140,0,0,0,37.1699981689453,-55.43000031,-36.74000168
-4446,-1628,3140,0,0,0,37.1699981689453,-55.43000031,-36.74000168
-4446,-1628,3140,0,0,0,37.1699981689453,-55.43000031,-36.74000168
-4704,-3371,2876,0,0,0,37.1699981689453,-55.43000031,-36.74000168
-4704,-3371,2876,0,0,0,37.1699981689453,-55.43000031,-36.74000168
-4704,-3371,2876,0,0,0,37.1699981689453,-55.43000031,-36.74000168
-4704,-3371,2876,0,0,0,37.1699981689453,-55.43000031,-36.74000168
-4704,-3371,2876,0,0,0,37.1699981689453,-55.43000031,-36.74000168
-4704,-3371,2876,0,0,0,37.1699981689453,-55.43000031,-36.74000168
-4704,-3371,2876,0,0,0,37.1699981689453,-55.43000031,-36.74000168
-3734,-2457,3536,0,0,0,37.1699981689453,-55.43000031,-36.74000168
-3734,-2457,3536,0,0,0,37.1699981689453,-55.43000031,-36.74000168
-3734,-2457,3536,0,0,0,37.1699981689453,-55.43000031,-36.74000168
-3734,-2457,3536,0,0,0,37.1699981689453,-55.43000031,-36.74000168
-3734,-2457,3536,0,0,0,37.1699981689453,-55.43000031,-36.74000168
-3734,-2457,3536,0,0,0,37.1699981689453,-55.43000031,-36.74000168
-3734,-2457,3536,0,0,0,37.1699981689453,-55.43000031,-36.74000168
-4070,-3392,2392,0,0,0,37.1699981689453,-55.43000031,-36.74000168
-4070,-3392,2392,0,0,0,37.1699981689453,-55.43000031,-36.74000168
-4070,-3392,2392,0,0,0,37.1699981689453,-55.43000031,-36.74000168
-4070,-3392,2392,0,0,0,37.1699981689453,-55.43000031,-36.74000168
-4070,-3392,2392,0,0,0,37.1699981689453,-55.43000031,-36.74000168
-4070,-3392,2392,0,0,0,37.1699981689453,-55.43000031,-36.74000168
-3603,-2214,4487,0,0,0,37.1699981689453,-55.43000031,-36.74000168
-3603,-2214,4487,0,0,0,37.1699981689453,-55.43000031,-36.74000168
-3603,-2214,4487,0,0,0,37.1699981689453,-55.43000031,-36.74000168
-3603,-2214,4487,0,0,0,37.1699981689453,-55.43000031,-36.74000168
-3603,-2214,4487,0,0,0,37.1699981689453,-55.43000031,-36.74000168
-3603,-2214,4487,0,0,0,37.1699981689453,-55.43000031,-36.74000168
-3603,-2214,4487,0,0,0,37.1699981689453,-55.43000031,-36.74000168
-3603,-2214,4487,0,0,0,37.1699981689453,-55.43000031,-36.74000168
-3900,-1582,2243,0,0,0,37.1699981689453,-55.43000031,-36.74000168
-3900,-1582,2243,0,0,0,37.1699981689453,-55.43000031,-36.74000168
-3900,-1582,2243,0,0,0,37.1699981689453,-55.43000031,-36.74000168
-3900,-1582,2243,0,0,0,37.1699981689453,-55.43000031,-36.74000168
-3900,-1582,2243,0,0,0,37.1699981689453,-55.43000031,-36.74000168
-3900,-1582,2243,0,0,0,37.1699981689453,-55.43000031,-36.74000168
-3776,-2086,1131,0,0,0,37.1699981689453,-55.43000031,-36.74000168
-3776,-2086,1131,0,0,0,37.1699981689453,-55.43000031,-36.74000168
-3776,-2086,1131,0,0,0,37.1699981689453,-55.43000031,-36.74000168
-3776,-2086,1131,0,0,0,37.1699981689453,-55.43000031,-36.74000168
-3776,-2086,1131,0,0,0,37.1699981689453,-55.43000031,-36.74000168
-3776,-2086,1131,0,0,0,37.1699981689453,-55.43000031,-36.74000168
-3776,-2086,1131,0,0,0,37.1699981689453,-55.43000031,-36.74000168
-4117,-1932,3410,0,0,0,37.1699981689453,-55.43000031,-36.74000168
-4117,-1932,3410,0,0,0,37.1699981689453,-55.43000031,-36.74000168
-4117,-1932,3410,0,0,0,37.1699981689453,-55.43000031,-36.74000168
-4117,-1932,3410,0,0,0,37.1699981689453,-55.43000031,-36.74000168
-4117,-1932,3410,0,0,0,37.1699981689453,-55.43000031,-36.74000168
-4117,-1932,3410,0,0,0,37.1699981689453,-55.43000031,-36.74000168
-4117,-1932,3410,0,0,0,37.1699981689453,-55.43000031,-36.74000168
-4090,-3774,2954,0,0,0,37.1699981689453,-55.43000031,-36.74000168
-4090,-3774,2954,0,0,0,37.1699981689453,-55.43000031,-36.74000168
-4090,-3774,2954,0,0,0,37.1699981689453,-55.43000031,-36.74000168
-4090,-3774,2954,0,0,0,37.1699981689453,-55.43000031,-36.74000168
-4090,-3774,2954,0,0,0,37.1699981689453,-55.43000031,-36.74000168
-4090,-3774,2954,0,0,0,37.1699981689453,-55.43000031,-36.74000168
-4090,-3774,2954,0,0,0,37.1699981689453,-55.43000031,-36.74000168
-4090,-3774,2954,0,0,0,38.0699996948242,-52.70000076,-65.91000366
-3030,-2119,3775,0,0,0,38.0699996948242,-52.70000076,-65.91000366
-3030,-2119,3775,0,0,0,38.0699996948242,-52.70000076,-65.91000366
-3030,-2119,3775,0,0,0,38.0699996948242,-52.70000076,-65.91000366
-3030,-2119,3775,0,0,0,38.0699996948242,-52.70000076,-65.91000366
-3030,-2119,3775,0,0,0,38.0699996948242,-52.70000076,-65.91000366
-3030,-2119,3775,0,0,0,38.0699996948242,-52.70000076,-65.91000366
-2729,-2764,1884,0,0,0,38.0699996948242,-52.70000076,-65.91000366
-2729,-2764,1884,0,0,0,38.0699996948242,-52.70000076,-65.91000366
-2729,-2764,1884,0,0,0,38.0699996948242,-52.70000076,-65.91000366
-2729,-2764,1884,0,0,0,38.0699996948242,-52.70000076,-65.91000366
-2729,-2764,1884,0,0,0,38.0699996948242,-52.70000076,-65.91000366
-2729,-2764,1884,0,0,0,38.0699996948242,-52.70000076,-65.91000366
-2729,-2764,1884,0,0,0,38.0699996948242,-52.70000076,-65.91000366
-2194,-3515,2738,0,0,0,38.0699996948242,-52.70000076,-65.91000366
-2194,-3515,2738,0,0,0,38.0699996948242,-52.70000076,-65.91000366
-2194,-3515,2738,0,0,0,38.0699996948242,-52.70000076,-65.91000366
-2194,-3515,2738,0,0,0,38.0699996948242,-52.70000076,-65.91000366
-2194,-3515,2738,0,0,0,38.0699996948242,-52.70000076,-65.91000366
-2194,-3515,2738,0,0,0,38.0699996948242,-52.70000076,-65.91000366
-2194,-3515,2738,0,0,0,38.0699996948242,-52.70000076,-65.91000366
-1999,-4373,3195,0,0,0,38.0699996948242,-52.70000076,-65.91000366
-1999,-4373,3195,0,0,0,38.0699996948242,-52.70000076,-65.91000366
-1999,-4373,3195,0,0,0,38.0699996948242,-52.70000076,-65.91000366
-1999,-4373,3195,0,0,0,38.0699996948242,-52.70000076,-65.91000366
-1999,-4373,3195,0,0,0,38.0699996948242,-52.70000076,-65.91000366
-1999,-4373,3195,0,0,0,38.0699996948242,-52.70000076,-65.91000366
-1999,-4373,3195,0,0,0,38.0699996948242,-52.70000076,-65.91000366
-3596,-6314,1202,0,0,0,38.0699996948242,-52.70000076,-65.91000366
-3596,-6314,1202,0,0,0,38.0699996948242,-52.70000076,-65.91000366
-3596,-6314,1202,0,0,0,38.0699996948242,-52.70000076,-65.91000366
-3596,-6314,1202,0,0,0,38.0699996948242,-52.70000076,-65.91000366
-3596,-6314,1202,0,0,0,38.0699996948242,-52.70000076,-65.91000366
-3596,-6314,1202,0,0,0,38.0699996948242,-52.70000076,-65.91000366
-3596,-6314,1202,0,0,0,38.0699996948242,-52.70000076,-65.91000366
-2437,-5535,2159,0,0,0,38.0699996948242,-52.70000076,-65.91000366
-2437,-5535,2159,0,0,0,38.0699996948242,-52.70000076,-65.91000366
-2437,-5535,2159,0,0,0,38.0699996948242,-52.70000076,-65.91000366
-2437,-5535,2159,0,0,0,38.0699996948242,-52.70000076,-65.91000366
-2437,-5535,2159,0,0,0,38.0699996948242,-52.70000076,-65.91000366
-2437,-5535,2159,0,0,0,38.0699996948242,-52.70000076,-65.91000366
-3259,-6585,2422,0,0,0,38.0699996948242,-52.70000076,-65.91000366
-3259,-6585,2422,0,0,0,38.0699996948242,-52.70000076,-65.91000366
-3259,-6585,2422,0,0,0,38.0699996948242,-52.70000076,-65.91000366
-3259,-6585,2422,0,0,0,38.0699996948242,-52.70000076,-65.91000366
-3259,-6585,2422,0,0,0,38.0699996948242,-52.70000076,-65.91000366
-3259,-6585,2422,0,0,0,38.0699996948242,-52.70000076,-65.91000366
-3259,-6585,2422,0,0,0,38.0699996948242,-52.70000076,-65.91000366
-3259,-6585,2422,0,0,0,38.0699996948242,-52.70000076,-65.91000366
-2259,-5421,2692,0,0,0,38.0699996948242,-52.70000076,-65.91000366
-2259,-5421,2692,0,0,0,38.0699996948242,-52.70000076,-65.91000366
-2259,-5421,2692,0,0,0,38.0699996948242,-52.70000076,-65.91000366
-2259,-5421,2692,0,0,0,38.0699996948242,-52.70000076,-65.91000366
-2259,-5421,2692,0,0,0,38.0699996948242,-52.70000076,-65.91000366
-2259,-5421,2692,0,0,0,38.0699996948242,-52.70000076,-65.91000366
-2259,-5421,2692,0,0,0,38.0699996948242,-52.70000076,-65.91000366
-2556,-6146,2736,0,0,0,38.0699996948242,-52.70000076,-65.91000366
-2556,-6146,2736,0,0,0,38.0699996948242,-52.70000076,-65.91000366
-2556,-6146,2736,0,0,0,38.0699996948242,-52.70000076,-65.91000366
-2556,-6146,2736,0,0,0,38.0699996948242,-52.70000076,-65.91000366
-2556,-6146,2736,0,0,0,38.0699996948242,-52.70000076,-65.91000366
-2556,-6146,2736,0,0,0,38.0699996948242,-52.70000076,-65.91000366
-2360,-6703,2727,0,0,0,38.0699996948242,-52.70000076,-65.91000366
-2360,-6703,2727,0,0,0,38.0699996948242,-52.70000076,-65.91000366
-2360,-6703,2727,0,0,0,38.0699996948242,-52.70000076,-65.91000366
-2360,-6703,2727,0,0,0,38.0699996948242,-52.70000076,-65.91000366
-2360,-6703,2727,0,0,0,38.0699996948242,-52.70000076,-65.91000366
-2360,-6703,2727,0,0,0,38.0699996948242,-52.70000076,-65.91000366
-2360,-6703,2727,0,0,0,38.0699996948242,-52.70000076,-65.91000366
-2110,-6453,6272,0,0,0,38.0699996948242,-52.70000076,-65.91000366
-2110,-6453,6272,0,0,0,38.0699996948242,-52.70000076,-65.91000366
-2110,-6453,6272,0,0,0,38.0699996948242,-52.70000076,-65.91000366
-2110,-6453,6272,0,0,0,38.0699996948242,-52.70000076,-65.91000366
-2110,-6453,6272,0,0,0,38.0699996948242,-52.70000076,-65.91000366
-2110,-6453,6272,0,0,0,38.0699996948242,-52.70000076,-65.91000366
-2110,-6453,6272,0,0,0,38.0699996948242,-52.70000076,-65.91000366
-2110,-6453,6272,0,0,0,35.0099983215332,-54.54000092,-70.23999786
-2110,-6453,6272,0,0,0,35.0099983215332,-54.54000092,-70.23999786
-2243,-7593,4525,0,0,0,35.0099983215332,-54.54000092,-70.23999786
-2243,-7593,4525,0,0,0,35.0099983215332,-54.54000092,-70.23999786
-2243,-7593,4525,0,0,0,35.0099983215332,-54.54000092,-70.23999786
-2243,-7593,4525,0,0,0,35.0099983215332,-54.54000092,-70.23999786
-2243,-7593,4525,0,0,0,35.0099983215332,-54.54000092,-70.23999786
-2630,-5743,5400,0,0,0,35.0099983215332,-54.54000092,-70.23999786
-2630,-5743,5400,0,0,0,35.0099983215332,-54.54000092,-70.23999786
-2630,-5743,5400,0,0,0,35.0099983215332,-54.54000092,-70.23999786
-2630,-5743,5400,0,0,0,35.0099983215332,-54.54000092,-70.23999786
-2630,-5743,5400,0,0,0,35.0099983215332,-54.54000092,-70.23999786
-2630,-5743,5400,0,0,0,35.0099983215332,-54.54000092,-70.23999786
-2630,-5743,5400,0,0,0,35.0099983215332,-54.54000092,-70.23999786
-3485,-6029,1762,0,0,0,35.0099983215332,-54.54000092,-70.23999786
-3485,-6029,1762,0,0,0,35.0099983215332,-54.54000092,-70.23999786
-3485,-6029,1762,0,0,0,35.0099983215332,-54.54000092,-70.23999786
-3485,-6029,1762,0,0,0,35.0099983215332,-54.54000092,-70.23999786
-3485,-6029,1762,0,0,0,35.0099983215332,-54.54000092,-70.23999786
-3485,-6029,1762,0,0,0,35.0099983215332,-54.54000092,-70.23999786
-3485,-6029,1762,0,0,0,35.0099983215332,-54.54000092,-70.23999786
-1842,-6951,669,0,0,0,35.0099983215332,-54.54000092,-70.23999786
-1842,-6951,669,0,0,0,35.0099983215332,-54.54000092,-70.23999786
-1842,-6951,669,0,0,0,35.0099983215332,-54.54000092,-70.23999786
-1842,-6951,669,0,0,0,35.0099983215332,-54.54000092,-70.23999786
-1842,-6951,669,0,0,0,35.0099983215332,-54.54000092,-70.23999786
-1842,-6951,669,0,0,0,35.0099983215332,-54.54000092,-70.23999786
-1842,-6951,669,0,0,0,35.0099983215332,-54.54000092,-70.23999786
-1980,-5620,2116,0,0,0,35.0099983215332,-54.54000092,-70.23999786
-1980,-5620,2116,0,0,0,35.0099983215332,-54.54000092,-70.23999786
-1980,-5620,2116,0,0,0,35.0099983215332,-54.54000092,-70.23999786
-1980,-5620,2116,0,0,0,35.0099983215332,-54.54000092,-70.23999786
-1980,-5620,2116,0,0,0,35.0099983215332,-54.54000092,-70.23999786
-1980,-5620,2116,0,0,0,35.0099983215332,-54.54000092,-70.23999786
-1980,-5620,2116,0,0,0,35.0099983215332,-54.54000092,-70.23999786
-2128,-6454,1326,0,0,0,35.0099983215332,-54.54000092,-70.23999786
-2128,-6454,1326,0,0,0,35.0099983215332,-54.54000092,-70.23999786
-2128,-6454,1326,0,0,0,35.0099983215332,-54.54000092,-70.23999786
-2128,-6454,1326,0,0,0,35.0099983215332,-54.54000092,-70.23999786
-2128,-6454,1326,0,0,0,35.0099983215332,-54.54000092,-70.23999786
-2128,-6454,1326,0,0,0,35.0099983215332,-54.54000092,-70.23999786
-2128,-6454,1326,0,0,0,35.0099983215332,-54.54000092,-70.23999786
-1680,-7050,995,0,0,0,35.0099983215332,-54.54000092,-70.23999786
-1680,-7050,995,0,0,0,35.0099983215332,-54.54000092,-70.23999786
-1680,-7050,995,0,0,0,35.0099983215332,-54.54000092,-70.23999786
-1680,-7050,995,0,0,0,35.0099983215332,-54.54000092,-70.23999786
-1680,-7050,995,0,0,0,35.0099983215332,-54.54000092,-70.23999786
-1680,-7050,995,0,0,0,35.0099983215332,-54.54000092,-70.23999786
-2799,-8253,582,0,0,0,35.0099983215332,-54.54000092,-70.23999786
-2799,-8253,582,0,0,0,35.0099983215332,-54.54000092,-70.23999786
-2799,-8253,582,0,0,0,35.0099983215332,-54.54000092,-70.23999786
-2799,-8253,582,0,0,0,35.0099983215332,-54.54000092,-70.23999786
-2799,-8253,582,0,0,0,35.0099983215332,-54.54000092,-70.23999786
-2799,-8253,582,0,0,0,35.0099983215332,-54.54000092,-70.23999786
-2799,-8253,582,0,0,0,35.0099983215332,-54.54000092,-70.23999786
-1196,-7193,3549,0,0,0,35.0099983215332,-54.54000092,-70.23999786
-1196,-7193,3549,0,0,0,35.0099983215332,-54.54000092,-70.23999786
-1196,-7193,3549,0,0,0,35.0099983215332,-54.54000092,-70.23999786
-1196,-7193,3549,0,0,0,35.0099983215332,-54.54000092,-70.23999786
-1196,-7193,3549,0,0,0,35.0099983215332,-54.54000092,-70.23999786
-1196,-7193,3549,0,0,0,35.0099983215332,-54.54000092,-70.23999786
-1196,-7193,3549,0,0,0,35.0099983215332,-54.54000092,-70.23999786
-1086,-6431,1164,0,0,0,35.0099983215332,-54.54000092,-70.23999786
-1086,-6431,1164,0,0,0,35.0099983215332,-54.54000092,-70.23999786
-1086,-6431,1164,0,0,0,35.0099983215332,-54.54000092,-70.23999786
-1086,-6431,1164,0,0,0,35.0099983215332,-54.54000092,-70.23999786
-1086,-6431,1164,0,0,0,35.0099983215332,-54.54000092,-70.23999786
-1086,-6431,1164,0,0,0,35.0099983215332,-54.54000092,-70.23999786
-1086,-6431,1164,0,0,0,35.0099983215332,-54.54000092,-70.23999786
-1676,-5828,553,0,0,0,35.0099983215332,-54.54000092,-70.23999786
-1676,-5828,553,0,0,0,35.0099983215332,-54.54000092,-70.23999786
-1676,-5828,553,0,0,0,35.0099983215332,-54.54000092,-70.23999786
-1676,-5828,553,0,0,0,35.0099983215332,-54.54000092,-70.23999786
-1676,-5828,553,0,0,0,35.0099983215332,-54.54000092,-70.23999786
-1676,-5828,553,0,0,0,35.0099983215332,-54.54000092,-70.23999786
-1676,-5828,553,0,0,0,35.0099983215332,-54.54000092,-70.23999786
-1676,-5828,553,0,0,0,31.4599990844727,-49.13000107,-72.01999664
-1403,-5191,2001,0,0,0,31.4599990844727,-49.13000107,-72.01999664
-1403,-5191,2001,0,0,0,31.4599990844727,-49.13000107,-72.01999664
-1403,-5191,2001,0,0,0,31.4599990844727,-49.13000107,-72.01999664
-1403,-5191,2001,0,0,0,31.4599990844727,-49.13000107,-72.01999664
-1403,-5191,2001,0,0,0,31.4599990844727,-49.13000107,-72.01999664
-1403,-5191,2001,0,0,0,31.4599990844727,-49.13000107,-72.01999664
-2703,-6235,1342,0,0,0,31.4599990844727,-49.13000107,-72.01999664
-2703,-6235,1342,0,0,0,31.4599990844727,-49.13000107,-72.01999664
-2703,-6235,1342,0,0,0,31.4599990844727,-49.13000107,-72.01999664
-2703,-6235,1342,0,0,0,31.4599990844727,-49.13000107,-72.01999664
-2703,-6235,1342,0,0,0,31.4599990844727,-49.13000107,-72.01999664
-2703,-6235,1342,0,0,0,31.4599990844727,-49.13000107,-72.01999664
-2703,-6235,1342,0,0,0,31.4599990844727,-49.13000107,-72.01999664
-1908,-4536,3027,0,0,0,31.4599990844727,-49.13000107,-72.01999664
-1908,-4536,3027,0,0,0,31.4599990844727,-49.13000107,-72.01999664
-1908,-4536,3027,0,0,0,31.4599990844727,-49.13000107,-72.01999664
-1908,-4536,3027,0,0,0,31.4599990844727,-49.13000107,-72.01999664
-1908,-4536,3027,0,0,0,31.4599990844727,-49.13000107,-72.01999664
-1908,-4536,3027,0,0,0,31.4599990844727,-49.13000107,-72.01999664
-1908,-4536,3027,0,0,0,31.4599990844727,-49.13000107,-72.01999664
-2294,-4731,2586,0,0,0,31.4599990844727,-49.13000107,-72.01999664
-2294,-4731,2586,0,0,0,31.4599990844727,-49.13000107,-72.01999664
-2294,-4731,2586,0,0,0,31.4599990844727,-49.13000107,-72.01999664
-2294,-4731,2586,0,0,0,31.4599990844727,-49.13000107,-72.01999664
-2294,-4731,2586,0,0,0,31.4599990844727,-49.13000107,-72.01999664
-2294,-4731,2586,0,0,0,31.4599990844727,-49.13000107,-72.01999664
-2294,-4731,2586,0,0,0,31.4599990844727,-49.13000107,-72.01999664
-2254,-4386,5341,0,0,0,31.4599990844727,-49.13000107,-72.01999664
-2254,-4386,5341,0,0,0,31.4599990844727,-49.13000107,-72.01999664
-2254,-4386,5341,0,0,0,31.4599990844727,-49.13000107,-72.01999664
-2254,-4386,5341,0,0,0,31.4599990844727,-49.13000107,-72.01999664
-2254,-4386,5341,0,0,0,31.4599990844727,-49.13000107,-72.01999664
-2254,-4386,5341,0,0,0,31.4599990844727,-49.13000107,-72.01999664
-2102,-3531,4284,0,0,0,31.4599990844727,-49.13000107,-72.01999664
-2102,-3531,4284,0,0,0,31.4599990844727,-49.13000107,-72.01999664
-2102,-3531,4284,0,0,0,31.4599990844727,-49.13000107,-72.01999664
-2102,-3531,4284,0,0,0,31.4599990844727,-49.13000107,-72.01999664
-2102,-3531,4284,0,0,0,31.4599990844727,-49.13000107,-72.01999664
-2102,-3531,4284,0,0,0,31.4599990844727,-49.13000107,-72.01999664
-2102,-3531,4284,0,0,0,31.4599990844727,-49.13000107,-72.01999664
-2102,-3531,4284,0,0,0,31.4599990844727,-49.13000107,-72.01999664
-2101,-3199,3799,0,0,0,31.4599990844727,-49.13000107,-72.01999664
-2101,-3199,3799,0,0,0,31.4599990844727,-49.13000107,-72.01999664
-2101,-3199,3799,0,0,0,31.4599990844727,-49.13000107,-72.01999664
-2101,-3199,3799,0,0,0,31.4599990844727,-49.13000107,-72.01999664
-2101,-3199,3799,0,0,0,31.4599990844727,-49.13000107,-72.01999664
-2101,-3199,3799,0,0,0,31.4599990844727,-49.13000107,-72.01999664
-775,-2119,6219,0,0,0,31.4599990844727,-49.13000107,-72.01999664
-775,-2119,6219,0,0,0,31.4599990844727,-49.13000107,-72.01999664
-775,-2119,6219,0,0,0,31.4599990844727,-49.13000107,-72.01999664
-775,-2119,6219,0,0,0,31.4599990844727,-49.13000107,-72.01999664
-775,-2119,6219,0,0,0,31.4599990844727,-49.13000107,-72.01999664
-775,-2119,6219,0,0,0,31.4599990844727,-49.13000107,-72.01999664
-775,-2119,6219,0,0,0,31.4599990844727,-49.13000107,-72.01999664
-1003,-2993,5643,0,0,0,31.4599990844727,-49.13000107,-72.01999664
-1003,-2993,5643,0,0,0,31.4599990844727,-49.13000107,-72.01999664
-1003,-2993,5643,0,0,0,31.4599990844727,-49.13000107,-72.01999664
-1003,-2993,5643,0,0,0,31.4599990844727,-49.13000107,-72.01999664
-1003,-2993,5643,0,0,0,31.4599990844727,-49.13000107,-72.01999664
-1003,-2993,5643,0,0,0,31.4599990844727,-49.13000107,-72.01999664
-1003,-2993,5643,0,0,0,31.4599990844727,-49.13000107,-72.01999664
-642,-3023,5247,0,0,0,31.4599990844727,-49.13000107,-72.01999664
-642,-3023,5247,0,0,0,31.4599990844727,-49.13000107,-72.01999664
-642,-3023,5247,0,0,0,31.4599990844727,-49.13000107,-72.01999664
-642,-3023,5247,0,0,0,31.4599990844727,-49.13000107,-72.01999664
-642,-3023,5247,0,0,0,31.4599990844727,-49.13000107,-72.01999664
-642,-3023,5247,0,0,0,31.4599990844727,-49.13000107,-72.01999664
-642,-3023,5247,0,0,0,31.4599990844727,-49.13000107,-72.01999664
-1083,-3588,3979,0,0,0,31.4599990844727,-49.13000107,-72.01999664
-1083,-3588,3979,0,0,0,31.4599990844727,-49.13000107,-72.01999664
-1083,-3588,3979,0,0,0,31.4599990844727,-49.13000107,-72.01999664
-1083,-3588,3979,0,0,0,31.4599990844727,-49.13000107,-72.01999664
-1083,-3588,3979,0,0,0,31.4599990844727,-49.13000107,-72.01999664
-1083,-3588,3979,0,0,0,31.4599990844727,-49.13000107,-72.01999664
-1083,-3588,3979,0,0,0,31.4599990844727,-49.13000107,-72.01999664
-1083,-3588,3979,0,0,0,25.4500007629395,-40.02000046,-73.61000061
-1083,-3588,3979,0,0,0,25.4500007629395,-40.02000046,-73.61000061
-163,-3140,5526,0,0,0,25.4500007629395,-40.02000046,-73.61000061
-163,-3140,5526,0,0,0,25.4500007629395,-40.02000046,-73.61000061
-163,-3140,5526,0,0,0,25.4500007629395,-40.02000046,-73.61000061
-163,-3140,5526,0,0,0,25.4500007629395,-40.02000046,-73.61000061
-163,-3140,5526,0,0,0,25.4500007629395,-40.02000046,-73.61000061
-820,-2668,7075,0,0,0,25.4500007629395,-40.02000046,-73.61000061
-820,-2668,7075,0,0,0,25.4500007629395,-40.02000046,-73.61000061
-820,-2668,7075,0,0,0,25.4500007629395,-40.02000046,-73.61000061
-820,-2668,7075,0,0,0,25.4500007629395,-40.02000046,-73.61000061
-820,-2668,7075,0,0,0,25.4500007629395,-40.02000046,-73.61000061
-820,-2668,7075,0,0,0,25.4500007629395,-40.02000046,-73.61000061
-820,-2668,7075,0,0,0,25.4500007629395,-40.02000046,-73.61000061
-1631,-3626,3602,0,0,0,25.4500007629395,-40.02000046,-73.61000061
-1631,-3626,3602,0,0,0,25.4500007629395,-40.02000046,-73.61000061
-1631,-3626,3602,0,0,0,25.4500007629395,-40.02000046,-73.61000061
-1631,-3626,3602,0,0,0,25.4500007629395,-40.02000046,-73.61000061
-1631,-3626,3602,0,0,0,25.4500007629395,-40.02000046,-73.61000061
-1631,-3626,3602,0,0,0,25.4500007629395,-40.02000046,-73.61000061
-1631,-3626,3602,0,0,0,25.4500007629395,-40.02000046,-73.61000061
-454,-2201,5669,0,0,0,25.4500007629395,-40.02000046,-73.61000061
-454,-2201,5669,0,0,0,25.4500007629395,-40.02000046,-73.61000061
-454,-2201,5669,0,0,0,25.4500007629395,-40.02000046,-73.61000061
-454,-2201,5669,0,0,0,25.4500007629395,-40.02000046,-73.61000061
-454,-2201,5669,0,0,0,25.4500007629395,-40.02000046,-73.61000061
-454,-2201,5669,0,0,0,25.4500007629395,-40.02000046,-73.61000061
-454,-2201,5669,0,0,0,25.4500007629395,-40.02000046,-73.61000061
-1136,-2652,5351,0,0,0,25.4500007629395,-40.02000046,-73.61000061
-1136,-2652,5351,0,0,0,25.4500007629395,-40.02000046,-73.61000061
-1136,-2652,5351,0,0,0,25.4500007629395,-40.02000046,-73.61000061
-1136,-2652,5351,0,0,0,25.4500007629395,-40.02000046,-73.61000061
-1136,-2652,5351,0,0,0,25.4500007629395,-40.02000046,-73.61000061
-1136,-2652,5351,0,0,0,25.4500007629395,-40.02000046,-73.61000061
-959,-1597,5815,0,0,0,25.4500007629395,-40.02000046,-73.61000061
-959,-1597,5815,0,0,0,25.4500007629395,-40.02000046,-73.61000061
-959,-1597,5815,0,0,0,25.4500007629395,-40.02000046,-73.61000061
-959,-1597,5815,0,0,0,25.4500007629395,-40.02000046,-73.61000061
-959,-1597,5815,0,0,0,25.4500007629395,-40.02000046,-73.61000061
-959,-1597,5815,0,0,0,25.4500007629395,-40.02000046,-73.61000061
-959,-1597,5815,0,0,0,25.4500007629395,-40.02000046,-73.61000061
-795,-1470,6925,0,0,0,25.4500007629395,-40.02000046,-73.61000061
-795,-1470,6925,0,0,0,25.4500007629395,-40.02000046,-73.61000061
-795,-1470,6925,0,0,0,25.4500007629395,-40.02000046,-73.61000061
-795,-1470,6925,0,0,0,25.4500007629395,-40.02000046,-73.61000061
-795,-1470,6925,0,0,0,25.4500007629395,-40.02000046,-73.61000061
-795,-1470,6925,0,0,0,25.4500007629395,-40.02000046,-73.61000061
-795,-1470,6925,0,0,0,25.4500007629395,-40.02000046,-73.61000061
-332,-2307,6092,0,0,0,25.4500007629395,-40.02000046,-73.61000061
-332,-2307,6092,0,0,0,25.4500007629395,-40.02000046,-73.61000061
-332,-2307,6092,0,0,0,25.4500007629395,-40.02000046,-73.61000061
-332,-2307,6092,0,0,0,25.4500007629395,-40.02000046,-73.61000061
-332,-2307,6092,0,0,0,25.4500007629395,-40.02000046,-73.61000061
-332,-2307,6092,0,0,0,25.4500007629395,-40.02000046,-73.61000061
-332,-2307,6092,0,0,0,25.4500007629395,-40.02000046,-73.61000061
401,-1094,6868,0,0,0,25.4500007629395,-40.02000046,-73.61000061
401,-1094,6868,0,0,0,25.4500007629395,-40.02000046,-73.61000061
401,-1094,6868,0,0,0,25.4500007629395,-40.02000046,-73.61000061
401,-1094,6868,0,0,0,25.4500007629395,-40.02000046,-73.61000061
401,-1094,6868,0,0,0,25.4500007629395,-40.02000046,-73.61000061
401,-1094,6868,0,0,0,25.4500007629395,-40.02000046,-73.61000061
401,-1094,6868,0,0,0,25.4500007629395,-40.02000046,-73.61000061
-1536,-2280,3171,0,0,0,25.4500007629395,-40.02000046,-73.61000061
-1536,-2280,3171,0,0,0,25.4500007629395,-40.02000046,-73.61000061
-1536,-2280,3171,0,0,0,25.4500007629395,-40.02000046,-73.61000061
-1536,-2280,3171,0,0,0,25.4500007629395,-40.02000046,-73.61000061
-1536,-2280,3171,0,0,0,25.4500007629395,-40.02000046,-73.61000061
-1536,-2280,3171,0,0,0,25.4500007629395,-40.02000046,-73.61000061
-1536,-2280,3171,0,0,0,25.4500007629395,-40.02000046,-73.61000061
-2407,-613,3471,0,0,0,25.4500007629395,-40.02000046,-73.61000061
-2407,-613,3471,0,0,0,25.4500007629395,-40.02000046,-73.61000061
-2407,-613,3471,0,0,0,25.4500007629395,-40.02000046,-73.61000061
-2407,-613,3471,0,0,0,25.4500007629395,-40.02000046,-73.61000061
-2407,-613,3471,0,0,0,25.4500007629395,-40.02000046,-73.61000061
-2407,-613,3471,0,0,0,25.4500007629395,-40.02000046,-73.61000061
-2407,-613,3471,0,0,0,17.6299991607666,-32.45000076,-74.44000244
-2407,-613,3471,0,0,0,17.6299991607666,-32.45000076,-74.44000244
-2000,-823,3942,0,0,0,17.6299991607666,-32.45000076,-74.44000244
-2000,-823,3942,0,0,0,17.6299991607666,-32.45000076,-74.44000244
-2000,-823,3942,0,0,0,17.6299991607666,-32.45000076,-74.44000244
-2000,-823,3942,0,0,0,17.6299991607666,-32.45000076,-74.44000244
-2000,-823,3942,0,0,0,17.6299991607666,-32.45000076,-74.44000244
-1019,-536,3421,0,0,0,17.6299991607666,-32.45000076,-74.44000244
-1019,-536,3421,0,0,0,17.6299991607666,-32.45000076,-74.44000244
-1019,-536,3421,0,0,0,17.6299991607666,-32.45000076,-74.44000244
-1019,-536,3421,0,0,0,17.6299991607666,-32.45000076,-74.44000244
-1019,-536,3421,0,0,0,17.6299991607666,-32.45000076,-74.44000244
-1019,-536,3421,0,0,0,17.6299991607666,-32.45000076,-74.44000244
-1019,-536,3421,0,0,0,17.6299991607666,-32.45000076,-74.44000244
-571,116,4390,0,0,0,17.6299991607666,-32.45000076,-74.44000244
-571,116,4390,0,0,0,17.6299991607666,-32.45000076,-74.44000244
-571,116,4390,0,0,0,17.6299991607666,-32.45000076,-74.44000244
-571,116,4390,0,0,0,17.6299991607666,-32.45000076,-74.44000244
-571,116,4390,0,0,0,17.6299991607666,-32.45000076,-74.44000244
-571,116,4390,0,0,0,17.6299991607666,-32.45000076,-74.44000244
-571,116,4390,0,0,0,17.6299991607666,-32.45000076,-74.44000244
-1064,-729,2733,0,0,0,17.6299991607666,-32.45000076,-74.44000244
-1064,-729,2733,0,0,0,17.6299991607666,-32.45000076,-74.44000244
-1064,-729,2733,0,0,0,17.6299991607666,-32.45000076,-74.44000244
-1064,-729,2733,0,0,0,17.6299991607666,-32.45000076,-74.44000244
-1064,-729,2733,0,0,0,17.6299991607666,-32.45000076,-74.44000244
-1064,-729,2733,0,0,0,17.6299991607666,-32.45000076,-74.44000244
-1064,-729,2733,0,0,0,17.6299991607666,-32.45000076,-74.44000244
-955,79,4889,0,0,0,17.6299991607666,-32.45000076,-74.44000244
-955,79,4889,0,0,0,17.6299991607666,-32.45000076,-74.44000244
-955,79,4889,0,0,0,17.6299991607666,-32.45000076,-74.44000244
-955,79,4889,0,0,0,17.6299991607666,-32.45000076,-74.44000244
-955,79,4889,0,0,0,17.6299991607666,-32.45000076,-74.44000244
-955,79,4889,0,0,0,17.6299991607666,-32.45000076,-74.44000244
-955,79,4889,0,0,0,17.6299991607666,-32.45000076,-74.44000244
-944,-975,4124,0,0,0,17.6299991607666,-32.45000076,-74.44000244
-944,-975,4124,0,0,0,17.6299991607666,-32.45000076,-74.44000244
-944,-975,4124,0,0,0,17.6299991607666,-32.45000076,-74.44000244
-944,-975,4124,0,0,0,17.6299991607666,-32.45000076,-74.44000244
-944,-975,4124,0,0,0,17.6299991607666,-32.45000076,-74.44000244
-944,-975,4124,0,0,0,17.6299991607666,-32.45000076,-74.44000244
-944,-975,4124,0,0,0,17.6299991607666,-32.45000076,-74.44000244
-1447,-948,3981,0,0,0,17.6299991607666,-32.45000076,-74.44000244
-1447,-948,3981,0,0,0,17.6299991607666,-32.45000076,-74.44000244
-1447,-948,3981,0,0,0,17.6299991607666,-32.45000076,-74.44000244
-1447,-948,3981,0,0,0,17.6299991607666,-32.45000076,-74.44000244
-1447,-948,3981,0,0,0,17.6299991607666,-32.45000076,-74.44000244
-1447,-948,3981,0,0,0,17.6299991607666,-32.45000076,-74.44000244
-1447,-948,3981,0,0,0,17.6299991607666,-32.45000076,-74.44000244
-1860,-2159,2225,0,0,0,17.6299991607666,-32.45000076,-74.44000244
-1860,-2159,2225,0,0,0,17.6299991607666,-32.45000076,-74.44000244
-1860,-2159,2225,0,0,0,17.6299991607666,-32.45000076,-74.44000244
-1860,-2159,2225,0,0,0,17.6299991607666,-32.45000076,-74.44000244
-1860,-2159,2225,0,0,0,17.6299991607666,-32.45000076,-74.44000244
-1860,-2159,2225,0,0,0,17.6299991607666,-32.45000076,-74.44000244
-1860,-2159,2225,0,0,0,17.6299991607666,-32.45000076,-74.44000244
-1467,-2111,1978,0,0,0,17.6299991607666,-32.45000076,-74.44000244
-1467,-2111,1978,0,0,0,17.6299991607666,-32.45000076,-74.44000244
-1467,-2111,1978,0,0,0,17.6299991607666,-32.45000076,-74.44000244
-1467,-2111,1978,0,0,0,17.6299991607666,-32.45000076,-74.44000244
-1467,-2111,1978,0,0,0,17.6299991607666,-32.45000076,-74.44000244
-1467,-2111,1978,0,0,0,17.6299991607666,-32.45000076,-74.44000244
-846,-1478,4061,-57,0,0,17.6299991607666,-32.45000076,-74.44000244
-846,-1478,4061,-57,0,0,17.6299991607666,-32.45000076,-74.44000244
-846,-1478,4061,-57,0,0,17.6299991607666,-32.45000076,-74.44000244
-846,-1478,4061,-57,0,0,17.6299991607666,-32.45000076,-74.44000244
-846,-1478,4061,-57,0,0,17.6299991607666,-32.45000076,-74.44000244
-846,-1478,4061,-57,0,0,17.6299991607666,-32.45000076,-74.44000244
-846,-1478,4061,-57,0,0,17.6299991607666,-32.45000076,-74.44000244
-846,-1478,4061,-57,0,0,17.6299991607666,-32.45000076,-74.44000244
-807,-2662,1366,0,0,0,17.6299991607666,-32.45000076,-74.44000244
-807,-2662,1366,0,0,0,17.6299991607666,-32.45000076,-74.44000244
-807,-2662,1366,0,0,0,17.6299991607666,-32.45000076,-74.44000244
-807,-2662,1366,0,0,0,17.6299991607666,-32.45000076,-74.44000244
-807,-2662,1366,0,0,0,17.6299991607666,-32.45000076,-74.44000244
-807,-2662,1366,0,0,0,17.6299991607666,-32.45000076,-74.44000244
-807,-2662,1366,0,0,0,12.9799995422363,-33.95999908,-74.31999969
-807,-2662,1366,0,0,0,12.9799995422363,-33.95999908,-74.31999969
233,-1439,4797,0,0,0,12.9799995422363,-33.95999908,-74.31999969
233,-1439,4797,0,0,0,12.9799995422363,-33.95999908,-74.31999969
233,-1439,4797,0,0,0,12.9799995422363,-33.95999908,-74.31999969
233,-1439,4797,0,0,0,12.9799995422363,-33.95999908,-74.31999969
233,-1439,4797,0,0,0,12.9799995422363,-33.95999908,-74.31999969
-252,-2137,3042,0,0,0,12.9799995422363,-33.95999908,-74.31999969
-252,-2137,3042,0,0,0,12.9799995422363,-33.95999908,-74.31999969
-252,-2137,3042,0,0,0,12.9799995422363,-33.95999908,-74.31999969
-252,-2137,3042,0,0,0,12.9799995422363,-33.95999908,-74.31999969
-252,-2137,3042,0,0,0,12.9799995422363,-33.95999908,-74.31999969
-252,-2137,3042,0,0,0,12.9799995422363,-33.95999908,-74.31999969
-252,-2137,3042,0,0,0,12.9799995422363,-33.95999908,-74.31999969
-498,-2185,2299,0,0,0,12.9799995422363,-33.95999908,-74.31999969
-498,-2185,2299,0,0,0,12.9799995422363,-33.95999908,-74.31999969
-498,-2185,2299,0,0,0,12.9799995422363,-33.95999908,-74.31999969
-498,-2185,2299,0,0,0,12.9799995422363,-33.95999908,-74.31999969
-498,-2185,2299,0,0,0,12.9799995422363,-33.95999908,-74.31999969
-498,-2185,2299,0,0,0,12.9799995422363,-33.95999908,-74.31999969
-498,-2185,2299,0,0,0,12.9799995422363,-33.95999908,-74.31999969
-814,-3163,3158,0,0,0,12.9799995422363,-33.95999908,-74.31999969
-814,-3163,3158,0,0,0,12.9799995422363,-33.95999908,-74.31999969
-814,-3163,3158,0,0,0,12.9799995422363,-33.95999908,-74.31999969
-814,-3163,3158,0,0,0,12.9799995422363,-33.95999908,-74.31999969
-814,-3163,3158,0,0,0,12.9799995422363,-33.95999908,-74.31999969
-814,-3163,3158,0,0,0,12.9799995422363,-33.95999908,-74.31999969
-814,-3163,3158,0,0,0,12.9799995422363,-33.95999908,-74.31999969
-1056,-3994,3195,0,0,0,12.9799995422363,-33.95999908,-74.31999969
-1056,-3994,3195,0,0,0,12.9799995422363,-33.95999908,-74.31999969
-1056,-3994,3195,0,0,0,12.9799995422363,-33.95999908,-74.31999969
-1056,-3994,3195,0,0,0,12.9799995422363,-33.95999908,-74.31999969
-1056,-3994,3195,0,0,0,12.9799995422363,-33.95999908,-74.31999969
-1056,-3994,3195,0,0,0,12.9799995422363,-33.95999908,-74.31999969
-1056,-3994,3195,0,0,0,12.9799995422363,-33.95999908,-74.31999969
-323,-3287,6075,0,0,0,12.9799995422363,-33.95999908,-74.31999969
-323,-3287,6075,0,0,0,12.9799995422363,-33.95999908,-74.31999969
-323,-3287,6075,0,0,0,12.9799995422363,-33.95999908,-74.31999969
-323,-3287,6075,0,0,0,12.9799995422363,-33.95999908,-74.31999969
-323,-3287,6075,0,0,0,12.9799995422363,-33.95999908,-74.31999969
-323,-3287,6075,0,0,0,12.9799995422363,-33.95999908,-74.31999969
-323,-3287,6075,0,0,0,12.9799995422363,-33.95999908,-74.31999969
-966,-3494,4189,0,0,0,12.9799995422363,-33.95999908,-74.31999969
-966,-3494,4189,0,0,0,12.9799995422363,-33.95999908,-74.31999969
-966,-3494,4189,0,0,0,12.9799995422363,-33.95999908,-74.31999969
-966,-3494,4189,0,0,0,12.9799995422363,-33.95999908,-74.31999969
-966,-3494,4189,0,0,0,12.9799995422363,-33.95999908,-74.31999969
-966,-3494,4189,0,0,0,12.9799995422363,-33.95999908,-74.31999969
-999,-2695,5084,0,0,0,12.9799995422363,-33.95999908,-74.31999969
-999,-2695,5084,0,0,0,12.9799995422363,-33.95999908,-74.31999969
-999,-2695,5084,0,0,0,12.9799995422363,-33.95999908,-74.31999969
-999,-2695,5084,0,0,0,12.9799995422363,-33.95999908,-74.31999969
-999,-2695,5084,0,0,0,12.9799995422363,-33.95999908,-74.31999969
-999,-2695,5084,0,0,0,12.9799995422363,-33.95999908,-74.31999969
-999,-2695,5084,0,0,0,12.9799995422363,-33.95999908,-74.31999969
-999,-2695,5084,0,0,0,12.9799995422363,-33.95999908,-74.31999969
-1322,-2441,5209,0,0,0,12.9799995422363,-33.95999908,-74.31999969
-1322,-2441,5209,0,0,0,12.9799995422363,-33.95999908,-74.31999969
-1322,-2441,5209,0,0,0,12.9799995422363,-33.95999908,-74.31999969
-1322,-2441,5209,0,0,0,12.9799995422363,-33.95999908,-74.31999969
-1322,-2441,5209,0,0,0,12.9799995422363,-33.95999908,-74.31999969
-1322,-2441,5209,0,0,0,12.9799995422363,-33.95999908,-74.31999969
-1676,-3742,4946,0,0,0,12.9799995422363,-33.95999908,-74.31999969
-1676,-3742,4946,0,0,0,12.9799995422363,-33.95999908,-74.31999969
-1676,-3742,4946,0,0,0,12.9799995422363,-33.95999908,-74.31999969
-1676,-3742,4946,0,0,0,12.9799995422363,-33.95999908,-74.31999969
-1676,-3742,4946,0,0,0,12.9799995422363,-33.95999908,-74.31999969
-1676,-3742,4946,0,0,0,12.9799995422363,-33.95999908,-74.31999969
-1676,-3742,4946,0,0,0,12.9799995422363,-33.95999908,-74.31999969
-949,-2983,5451,0,0,0,12.9799995422363,-33.95999908,-74.31999969
-949,-2983,5451,0,0,0,12.9799995422363,-33.95999908,-74.31999969
-949,-2983,5451,0,0,0,12.9799995422363,-33.95999908,-74.31999969
-949,-2983,5451,0,0,0,12.9799995422363,-33.95999908,-74.31999969
-949,-2983,5451,0,0,0,12.9799995422363,-33.95999908,-74.31999969
-949,-2983,5451,0,0,0,12.9799995422363,-33.95999908,-74.31999969
-949,-2983,5451,0,0,0,12.9799995422363,-33.95999908,-74.31999969
-949,-2983,5451,0,0,0,6.09999990463257,-31.53000069,-73.98999786
-949,-2983,5451,0,0,0,6.09999990463257,-31.53000069,-73.98999786
-1663,-3507,4496,0,0,0,6.09999990463257,-31.53000069,-73.98999786
-1663,-3507,4496,0,0,0,6.09999990463257,-31.53000069,-73.98999786
-1663,-3507,4496,0,0,0,6.09999990463257,-31.53000069,-73.98999786
-1663,-3507,4496,0,0,0,6.09999990463257,-31.53000069,-73.98999786
-1663,-3507,4496,0,0,0,6.09999990463257,-31.53000069,-73.98999786
-781,-2920,5941,0,0,0,6.09999990463257,-31.53000069,-73.98999786
-781,-2920,5941,0,0,0,6.09999990463257,-31.53000069,-73.98999786
-781,-2920,5941,0,0,0,6.09999990463257,-31.53000069,-73.98999786
-781,-2920,5941,0,0,0,6.09999990463257,-31.53000069,-73.98999786
-781,-2920,5941,0,0,0,6.09999990463257,-31.53000069,-73.98999786
-781,-2920,5941,0,0,0,6.09999990463257,-31.53000069,-73.98999786
-781,-2920,5941,0,0,0,6.09999990463257,-31.53000069,-73.98999786
-452,-3458,5398,0,0,0,6.09999990463257,-31.53000069,-73.98999786
-452,-3458,5398,0,0,0,6.09999990463257,-31.53000069,-73.98999786
-452,-3458,5398,0,0,0,6.09999990463257,-31.53000069,-73.98999786
-452,-3458,5398,0,0,0,6.09999990463257,-31.53000069,-73.98999786
-452,-3458,5398,0,0,0,6.09999990463257,-31.53000069,-73.98999786
-452,-3458,5398,0,0,0,6.09999990463257,-31.53000069,-73.98999786
-452,-3458,5398,0,0,0,6.09999990463257,-31.53000069,-73.98999786
-1340,-3227,4922,0,0,0,6.09999990463257,-31.53000069,-73.98999786
-1340,-3227,4922,0,0,0,6.09999990463257,-31.53000069,-73.98999786
-1340,-3227,4922,0,0,0,6.09999990463257,-31.53000069,-73.98999786
-1340,-3227,4922,0,0,0,6.09999990463257,-31.53000069,-73.98999786
-1340,-3227,4922,0,0,0,6.09999990463257,-31.53000069,-73.98999786
-1340,-3227,4922,0,0,0,6.09999990463257,-31.53000069,-73.98999786
-1340,-3227,4922,0,0,0,6.09999990463257,-31.53000069,-73.98999786
-559,-2426,4270,0,0,0,6.09999990463257,-31.53000069,-73.98999786
-559,-2426,4270,0,0,0,6.09999990463257,-31.53000069,-73.98999786
-559,-2426,4270,0,0,0,6.09999990463257,-31.53000069,-73.98999786
-559,-2426,4270,0,0,0,6.09999990463257,-31.53000069,-73.98999786
-559,-2426,4270,0,0,0,6.09999990463257,-31.53000069,-73.98999786
-559,-2426,4270,0,0,0,6.09999990463257,-31.53000069,-73.98999786
-559,-2426,4270,0,0,0,6.09999990463257,-31.53000069,-73.98999786
-989,-2893,4264,0,0,0,6.09999990463257,-31.53000069,-73.98999786
-989,-2893,4264,0,0,0,6.09999990463257,-31.53000069,-73.98999786
-989,-2893,4264,0,0,0,6.09999990463257,-31.53000069,-73.98999786
-989,-2893,4264,0,0,0,6.09999990463257,-31.53000069,-73.98999786
-989,-2893,4264,0,0,0,6.09999990463257,-31.53000069,-73.98999786
-989,-2893,4264,0,0,0,6.09999990463257,-31.53000069,-73.98999786
-989,-2893,4264,0,0,0,6.09999990463257,-31.53000069,-73.98999786
-456,-879,5592,0,0,0,6.09999990463257,-31.53000069,-73.98999786
-456,-879,5592,0,0,0,6.09999990463257,-31.53000069,-73.98999786
-456,-879,5592,0,0,0,6.09999990463257,-31.53000069,-73.98999786
-456,-879,5592,0,0,0,6.09999990463257,-31.53000069,-73.98999786
-456,-879,5592,0,0,0,6.09999990463257,-31.53000069,-73.98999786
-456,-879,5592,0,0,0,6.09999990463257,-31.53000069,-73.98999786
-868,-3044,4459,0,0,0,6.09999990463257,-31.53000069,-73.98999786
-868,-3044,4459,0,0,0,6.09999990463257,-31.53000069,-73.98999786
-868,-3044,4459,0,0,0,6.09999990463257,-31.53000069,-73.98999786
-868,-3044,4459,0,0,0,6.09999990463257,-31.53000069,-73.98999786
-868,-3044,4459,0,0,0,6.09999990463257,-31.53000069,-73.98999786
-868,-3044,4459,0,0,0,6.09999990463257,-31.53000069,-73.98999786
-868,-3044,4459,0,0,0,6.09999990463257,-31.53000069,-73.98999786
-868,-3044,4459,0,0,0,6.09999990463257,-31.53000069,-73.98999786
-391,-2549,4909,0,0,0,6.09999990463257,-31.53000069,-73.98999786
-391,-2549,4909,0,0,0,6.09999990463257,-31.53000069,-73.98999786
-391,-2549,4909,0,0,0,6.09999990463257,-31.53000069,-73.98999786
-391,-2549,4909,0,0,0,6.09999990463257,-31.53000069,-73.98999786
-391,-2549,4909,0,0,0,6.09999990463257,-31.53000069,-73.98999786
-391,-2549,4909,0,0,0,6.09999990463257,-31.53000069,-73.98999786
240,-2918,4642,0,0,0,6.09999990463257,-31.53000069,-73.98999786
240,-2918,4642,0,0,0,6.09999990463257,-31.53000069,-73.98999786
240,-2918,4642,0,0,0,6.09999990463257,-31.53000069,-73.98999786
240,-2918,4642,0,0,0,6.09999990463257,-31.53000069,-73.98999786
240,-2918,4642,0,0,0,6.09999990463257,-31.53000069,-73.98999786
240,-2918,4642,0,0,0,6.09999990463257,-31.53000069,-73.98999786
240,-2918,4642,0,0,0,6.09999990463257,-31.53000069,-73.98999786
-285,-2881,4144,0,0,0,6.09999990463257,-31.53000069,-73.98999786
-285,-2881,4144,0,0,0,6.09999990463257,-31.53000069,-73.98999786
-285,-2881,4144,0,0,0,6.09999990463257,-31.53000069,-73.98999786
-285,-2881,4144,0,0,0,6.09999990463257,-31.53000069,-73.98999786
-285,-2881,4144,0,0,0,6.09999990463257,-31.53000069,-73.98999786
-285,-2881,4144,0,0,0,6.09999990463257,-31.53000069,-73.98999786
-285,-2881,4144,0,0,0,6.09999990463257,-31.53000069,-73.98999786
-285,-2881,4144,0,0,0,1.25,-26.76000023,-73.26999664
-285,-2881,4144,0,0,0,1.25,-26.76000023,-73.26999664
144,-2818,5270,0,0,0,1.25,-26.76000023,-73.26999664
144,-2818,5270,0,0,0,1.25,-26.76000023,-73.26999664
144,-2818,5270,0,0,0,1.25,-26.76000023,-73.26999664
144,-2818,5270,0,0,0,1.25,-26.76000023,-73.26999664
144,-2818,5270,0,0,0,1.25,-26.76000023,-73.26999664
-186,-3014,4969,0,0,0,1.25,-26.76000023,-73.26999664
-186,-3014,4969,0,0,0,1.25,-26.76000023,-73.26999664
-186,-3014,4969,0,0,0,1.25,-26.76000023,-73.26999664
-186,-3014,4969,0,0,0,1.25,-26.76000023,-73.26999664
-186,-3014,4969,0,0,0,1.25,-26.76000023,-73.26999664
-186,-3014,4969,0,0,0,1.25,-26.76000023,-73.26999664
-186,-3014,4969,0,0,0,1.25,-26.76000023,-73.26999664
-107,-2420,6856,0,0,0,1.25,-26.76000023,-73.26999664
-107,-2420,6856,0,0,0,1.25,-26.76000023,-73.26999664
-107,-2420,6856,0,0,0,1.25,-26.76000023,-73.26999664
-107,-2420,6856,0,0,0,1.25,-26.76000023,-73.26999664
-107,-2420,6856,0,0,0,1.25,-26.76000023,-73.26999664
-107,-2420,6856,0,0,0,1.25,-26.76000023,-73.26999664
-107,-2420,6856,0,0,0,1.25,-26.76000023,-73.26999664
-281,-2345,7247,0,0,0,1.25,-26.76000023,-73.26999664
-281,-2345,7247,0,0,0,1.25,-26.76000023,-73.26999664
-281,-2345,7247,0,0,0,1.25,-26.76000023,-73.26999664
-281,-2345,7247,0,0,0,1.25,-26.76000023,-73.26999664
-281,-2345,7247,0,0,0,1.25,-26.76000023,-73.26999664
-281,-2345,7247,0,0,0,1.25,-26.76000023,-73.26999664
-281,-2345,7247,0,0,0,1.25,-26.76000023,-73.26999664
-252,-2008,7038,0,0,0,1.25,-26.76000023,-73.26999664
-252,-2008,7038,0,0,0,1.25,-26.76000023,-73.26999664
-252,-2008,7038,0,0,0,1.25,-26.76000023,-73.26999664
-252,-2008,7038,0,0,0,1.25,-26.76000023,-73.26999664
-252,-2008,7038,0,0,0,1.25,-26.76000023,-73.26999664
-252,-2008,7038,0,0,0,1.25,-26.76000023,-73.26999664
-100,-2719,6941,0,0,0,1.25,-26.76000023,-73.26999664
-100,-2719,6941,0,0,0,1.25,-26.76000023,-73.26999664
-100,-2719,6941,0,0,0,1.25,-26.76000023,-73.26999664
-100,-2719,6941,0,0,0,1.25,-26.76000023,-73.26999664
-100,-2719,6941,0,0,0,1.25,-26.76000023,-73.26999664
-100,-2719,6941,0,0,0,1.25,-26.76000023,-73.26999664
-100,-2719,6941,0,0,0,1.25,-26.76000023,-73.26999664
-409,-4236,6617,0,0,0,1.25,-26.76000023,-73.26999664
-409,-4236,6617,0,0,0,1.25,-26.76000023,-73.26999664
-409,-4236,6617,0,0,0,1.25,-26.76000023,-73.26999664
-409,-4236,6617,0,0,0,1.25,-26.76000023,-73.26999664
-409,-4236,6617,0,0,0,1.25,-26.76000023,-73.26999664
-409,-4236,6617,0,0,0,1.25,-26.76000023,-73.26999664
-409,-4236,6617,0,0,0,1.25,-26.76000023,-73.26999664
111,-3594,7253,0,0,0,1.25,-26.76000023,-73.26999664
111,-3594,7253,0,0,0,1.25,-26.76000023,-73.26999664
111,-3594,7253,0,0,0,1.25,-26.76000023,-73.26999664
111,-3594,7253,0,0,0,1.25,-26.76000023,-73.26999664
111,-3594,7253,0,0,0,1.25,-26.76000023,-73.26999664
111,-3594,7253,0,0,0,1.25,-26.76000023,-73.26999664
111,-3594,7253,0,0,0,1.25,-26.76000023,-73.26999664
112,-2491,6863,0,0,0,1.25,-26.76000023,-73.26999664
112,-2491,6863,0,0,0,1.25,-26.76000023,-73.26999664
112,-2491,6863,0,0,0,1.25,-26.76000023,-73.26999664
112,-2491,6863,0,0,0,1.25,-26.76000023,-73.26999664
112,-2491,6863,0,0,0,1.25,-26.76000023,-73.26999664
112,-2491,6863,0,0,0,1.25,-26.76000023,-73.26999664
112,-2491,6863,0,0,0,1.25,-26.76000023,-73.26999664
196,-1868,7991,0,0,0,1.25,-26.76000023,-73.26999664
196,-1868,7991,0,0,0,1.25,-26.76000023,-73.26999664
196,-1868,7991,0,0,0,1.25,-26.76000023,-73.26999664
196,-1868,7991,0,0,0,1.25,-26.76000023,-73.26999664
196,-1868,7991,0,0,0,1.25,-26.76000023,-73.26999664
196,-1868,7991,0,0,0,1.25,-26.76000023,-73.26999664
196,-1868,7991,0,0,0,1.25,-26.76000023,-73.26999664
-195,-2525,7435,0,0,0,1.25,-26.76000023,-73.26999664
-195,-2525,7435,0,0,0,1.25,-26.76000023,-73.26999664
-195,-2525,7435,0,0,0,1.25,-26.76000023,-73.26999664
-195,-2525,7435,0,0,0,1.25,-26.76000023,-73.26999664
-195,-2525,7435,0,0,0,1.25,-26.76000023,-73.26999664
-195,-2525,7435,0,0,0,1.25,-26.76000023,-73.26999664
-195,-2525,7435,0,0,0,-3.529999971,-20.73999977,-72.33000183
-195,-2525,7435,0,0,0,-3.529999971,-20.73999977,-72.33000183
-141,-3739,6235,0,0,0,-3.529999971,-20.73999977,-72.33000183
-141,-3739,6235,0,0,0,-3.529999971,-20.73999977,-72.33000183
-141,-3739,6235,0,0,0,-3.529999971,-20.73999977,-72.33000183
-141,-3739,6235,0,0,0,-3.529999971,-20.73999977,-72.33000183
-141,-3739,6235,0,0,0,-3.529999971,-20.73999977,-72.33000183
-266,-3930,6415,0,0,0,-3.529999971,-20.73999977,-72.33000183
-266,-3930,6415,0,0,0,-3.529999971,-20.73999977,-72.33000183
-266,-3930,6415,0,0,0,-3.529999971,-20.73999977,-72.33000183
-266,-3930,6415,0,0,0,-3.529999971,-20.73999977,-72.33000183
-266,-3930,6415,0,0,0,-3.529999971,-20.73999977,-72.33000183
-266,-3930,6415,0,0,0,-3.529999971,-20.73999977,-72.33000183
-266,-3930,6415,0,0,0,-3.529999971,-20.73999977,-72.33000183
-920,-4953,5108,0,0,0,-3.529999971,-20.73999977,-72.33000183
-920,-4953,5108,0,0,0,-3.529999971,-20.73999977,-72.33000183
-920,-4953,5108,0,0,0,-3.529999971,-20.73999977,-72.33000183
-920,-4953,5108,0,0,0,-3.529999971,-20.73999977,-72.33000183
-920,-4953,5108,0,0,0,-3.529999971,-20.73999977,-72.33000183
-920,-4953,5108,0,0,0,-3.529999971,-20.73999977,-72.33000183
-920,-4953,5108,0,0,0,-3.529999971,-20.73999977,-72.33000183
-999,-3545,5070,0,0,0,-3.529999971,-20.73999977,-72.33000183
-999,-3545,5070,0,0,0,-3.529999971,-20.73999977,-72.33000183
-999,-3545,5070,0,0,0,-3.529999971,-20.73999977,-72.33000183
-999,-3545,5070,0,0,0,-3.529999971,-20.73999977,-72.33000183
-999,-3545,5070,0,0,0,-3.529999971,-20.73999977,-72.33000183
-999,-3545,5070,0,0,0,-3.529999971,-20.73999977,-72.33000183
-999,-3545,5070,0,0,0,-3.529999971,-20.73999977,-72.33000183
-899,-2931,5161,0,0,0,-3.529999971,-20.73999977,-72.33000183
-899,-2931,5161,0,0,0,-3.529999971,-20.73999977,-72.33000183
-899,-2931,5161,0,0,0,-3.529999971,-20.73999977,-72.33000183
-899,-2931,5161,0,0,0,-3.529999971,-20.73999977,-72.33000183
-899,-2931,5161,0,0,0,-3.529999971,-20.73999977,-72.33000183
-899,-2931,5161,0,0,0,-3.529999971,-20.73999977,-72.33000183
-899,-2931,5161,0,0,0,-3.529999971,-20.73999977,-72.33000183
-426,-2682,5662,0,0,0,-3.529999971,-20.73999977,-72.33000183
-426,-2682,5662,0,0,0,-3.529999971,-20.73999977,-72.33000183
-426,-2682,5662,0,0,0,-3.529999971,-20.73999977,-72.33000183
-426,-2682,5662,0,0,0,-3.529999971,-20.73999977,-72.33000183
-426,-2682,5662,0,0,0,-3.529999971,-20.73999977,-72.33000183
-426,-2682,5662,0,0,0,-3.529999971,-20.73999977,-72.33000183
-820,-2205,5263,0,0,0,-3.529999971,-20.73999977,-72.33000183
-820,-2205,5263,0,0,0,-3.529999971,-20.73999977,-72.33000183
-820,-2205,5263,0,0,0,-3.529999971,-20.73999977,-72.33000183
-820,-2205,5263,0,0,0,-3.529999971,-20.73999977,-72.33000183
-820,-2205,5263,0,0,0,-3.529999971,-20.73999977,-72.33000183
-820,-2205,5263,0,0,0,-3.529999971,-20.73999977,-72.33000183
-820,-2205,5263,0,0,0,-3.529999971,-20.73999977,-72.33000183
-1379,-2768,3889,0,0,0,-3.529999971,-20.73999977,-72.33000183
-1379,-2768,3889,0,0,0,-3.529999971,-20.73999977,-72.33000183
-1379,-2768,3889,0,0,0,-3.529999971,-20.73999977,-72.33000183
-1379,-2768,3889,0,0,0,-3.529999971,-20.73999977,-72.33000183
-1379,-2768,3889,0,0,0,-3.529999971,-20.73999977,-72.33000183
-1379,-2768,3889,0,0,0,-3.529999971,-20.73999977,-72.33000183
-1379,-2768,3889,0,0,0,-3.529999971,-20.73999977,-72.33000183
-406,-2541,5952,0,0,0,-3.529999971,-20.73999977,-72.33000183
-406,-2541,5952,0,0,0,-3.529999971,-20.73999977,-72.33000183
-406,-2541,5952,0,0,0,-3.529999971,-20.73999977,-72.33000183
-406,-2541,5952,0,0,0,-3.529999971,-20.73999977,-72.33000183
-406,-2541,5952,0,0,0,-3.529999971,-20.73999977,-72.33000183
-406,-2541,5952,0,0,0,-3.529999971,-20.73999977,-72.33000183
-406,-2541,5952,0,0,0,-3.529999971,-20.73999977,-72.33000183
-317,-2720,5513,0,0,0,-3.529999971,-20.73999977,-72.33000183
-317,-2720,5513,0,0,0,-3.529999971,-20.73999977,-72.33000183
-317,-2720,5513,0,0,0,-3.529999971,-20.73999977,-72.33000183
-317,-2720,5513,0,0,0,-3.529999971,-20.73999977,-72.33000183
-317,-2720,5513,0,0,0,-3.529999971,-20.73999977,-72.33000183
-317,-2720,5513,0,0,0,-3.529999971,-20.73999977,-72.33000183
-317,-2720,5513,0,0,0,-3.529999971,-20.73999977,-72.33000183
-7,-2113,6429,0,0,0,-3.529999971,-20.73999977,-72.33000183
-7,-2113,6429,0,0,0,-3.529999971,-20.73999977,-72.33000183
-7,-2113,6429,0,0,0,-3.529999971,-20.73999977,-72.33000183
-7,-2113,6429,0,0,0,-3.529999971,-20.73999977,-72.33000183
-7,-2113,6429,0,0,0,-3.529999971,-20.73999977,-72.33000183
-7,-2113,6429,0,0,0,-3.529999971,-20.73999977,-72.33000183
-7,-2113,6429,0,0,0,-3.529999971,-20.73999977,-72.33000183
-7,-2113,6429,0,0,0,-6.039999962,-18.36000061,-71.48999786
116,-2999,6692,0,0,0,-6.039999962,-18.36000061,-71.48999786
116,-2999,6692,0,0,0,-6.039999962,-18.36000061,-71.48999786
116,-2999,6692,0,0,0,-6.039999962,-18.36000061,-71.48999786
116,-2999,6692,0,0,0,-6.039999962,-18.36000061,-71.48999786
116,-2999,6692,0,0,0,-6.039999962,-18.36000061,-71.48999786
116,-2999,6692,0,0,0,-6.039999962,-18.36000061,-71.48999786
-242,-3261,4976,0,0,0,-6.039999962,-18.36000061,-71.48999786
-242,-3261,4976,0,0,0,-6.039999962,-18.36000061,-71.48999786
-242,-3261,4976,0,0,0,-6.039999962,-18.36000061,-71.48999786
-242,-3261,4976,0,0,0,-6.039999962,-18.36000061,-71.48999786
-242,-3261,4976,0,0,0,-6.039999962,-18.36000061,-71.48999786
-242,-3261,4976,0,0,0,-6.039999962,-18.36000061,-71.48999786
-242,-3261,4976,0,0,0,-6.039999962,-18.36000061,-71.48999786
-190,-3162,6163,0,0,0,-6.039999962,-18.36000061,-71.48999786
-190,-3162,6163,0,0,0,-6.039999962,-18.36000061,-71.48999786
-190,-3162,6163,0,0,0,-6.039999962,-18.36000061,-71.48999786
-190,-3162,6163,0,0,0,-6.039999962,-18.36000061,-71.48999786
-190,-3162,6163,0,0,0,-6.039999962,-18.36000061,-71.48999786
-190,-3162,6163,0,0,0,-6.039999962,-18.36000061,-71.48999786
-190,-3162,6163,0,0,0,-6.039999962,-18.36000061,-71.48999786
-1100,-3678,5143,0,0,0,-6.039999962,-18.36000061,-71.48999786
-1100,-3678,5143,0,0,0,-6.039999962,-18.36000061,-71.48999786
-1100,-3678,5143,0,0,0,-6.039999962,-18.36000061,-71.48999786
-1100,-3678,5143,0,0,0,-6.039999962,-18.36000061,-71.48999786
-1100,-3678,5143,0,0,0,-6.039999962,-18.36000061,-71.48999786
-1100,-3678,5143,0,0,0,-6.039999962,-18.36000061,-71.48999786
-374,-2473,6408,0,0,0,-6.039999962,-18.36000061,-71.48999786
-374,-2473,6408,0,0,0,-6.039999962,-18.36000061,-71.48999786
-374,-2473,6408,0,0,0,-6.039999962,-18.36000061,-71.48999786
-374,-2473,6408,0,0,0,-6.039999962,-18.36000061,-71.48999786
-374,-2473,6408,0,0,0,-6.039999962,-18.36000061,-71.48999786
-374,-2473,6408,0,0,0,-6.039999962,-18.36000061,-71.48999786
-374,-2473,6408,0,0,0,-6.039999962,-18.36000061,-71.48999786
-463,-2874,5178,0,0,0,-6.039999962,-18.36000061,-71.48999786
-463,-2874,5178,0,0,0,-6.039999962,-18.36000061,-71.48999786
-463,-2874,5178,0,0,0,-6.039999962,-18.36000061,-71.48999786
-463,-2874,5178,0,0,0,-6.039999962,-18.36000061,-71.48999786
-463,-2874,5178,0,0,0,-6.039999962,-18.36000061,-71.48999786
-463,-2874,5178,0,0,0,-6.039999962,-18.36000061,-71.48999786
-463,-2874,5178,0,0,0,-6.039999962,-18.36000061,-71.48999786
-618,-3719,5541,0,0,0,-6.039999962,-18.36000061,-71.48999786
-618,-3719,5541,0,0,0,-6.039999962,-18.36000061,-71.48999786
-618,-3719,5541,0,0,0,-6.039999962,-18.36000061,-71.48999786
-618,-3719,5541,0,0,0,-6.039999962,-18.36000061,-71.48999786
-618,-3719,5541,0,0,0,-6.039999962,-18.36000061,-71.48999786
-618,-3719,5541,0,0,0,-6.039999962,-18.36000061,-71.48999786
-618,-3719,5541,0,0,0,-6.039999962,-18.36000061,-71.48999786
-355,-2898,5772,0,0,0,-6.039999962,-18.36000061,-71.48999786
-355,-2898,5772,0,0,0,-6.039999962,-18.36000061,-71.48999786
-355,-2898,5772,0,0,0,-6.039999962,-18.36000061,-71.48999786
-355,-2898,5772,0,0,0,-6.039999962,-18.36000061,-71.48999786
-355,-2898,5772,0,0,0,-6.039999962,-18.36000061,-71.48999786
-355,-2898,5772,0,0,0,-6.039999962,-18.36000061,-71.48999786
-355,-2898,5772,0,0,0,-6.039999962,-18.36000061,-71.48999786
-959,-3536,5008,0,0,0,-6.039999962,-18.36000061,-71.48999786
-959,-3536,5008,0,0,0,-6.039999962,-18.36000061,-71.48999786
-959,-3536,5008,0,0,0,-6.039999962,-18.36000061,-71.48999786
-959,-3536,5008,0,0,0,-6.039999962,-18.36000061,-71.48999786
-959,-3536,5008,0,0,0,-6.039999962,-18.36000061,-71.48999786
-959,-3536,5008,0,0,0,-6.039999962,-18.36000061,-71.48999786
45,-2181,5032,0,0,0,-6.039999962,-18.36000061,-71.48999786
45,-2181,5032,0,0,0,-6.039999962,-18.36000061,-71.48999786
45,-2181,5032,0,0,0,-6.039999962,-18.36000061,-71.48999786
45,-2181,5032,0,0,0,-6.039999962,-18.36000061,-71.48999786
45,-2181,5032,0,0,0,-6.039999962,-18.36000061,-71.48999786
45,-2181,5032,0,0,0,-6.039999962,-18.36000061,-71.48999786
45,-2181,5032,0,0,0,-6.039999962,-18.36000061,-71.48999786
45,-2181,5032,0,0,0,-6.039999962,-18.36000061,-71.48999786
-600,-2964,4089,0,0,0,-6.039999962,-18.36000061,-71.48999786
-600,-2964,4089,0,0,0,-6.039999962,-18.36000061,-71.48999786
-600,-2964,4089,0,0,0,-6.039999962,-18.36000061,-71.48999786
-600,-2964,4089,0,0,0,-6.039999962,-18.36000061,-71.48999786
-600,-2964,4089,0,0,0,-6.039999962,-18.36000061,-71.48999786
-600,-2964,4089,0,0,0,-6.039999962,-18.36000061,-71.48999786
-600,-2964,4089,0,0,0,-6.71999979,-18.48999977,-70.66999817
-600,-2964,4089,0,0,0,-6.71999979,-18.48999977,-70.66999817
-418,-3183,4855,0,0,0,-6.71999979,-18.48999977,-70.66999817
-418,-3183,4855,0,0,0,-6.71999979,-18.48999977,-70.66999817
-418,-3183,4855,0,0,0,-6.71999979,-18.48999977,-70.66999817
-418,-3183,4855,0,0,0,-6.71999979,-18.48999977,-70.66999817
-418,-3183,4855,0,0,0,-6.71999979,-18.48999977,-70.66999817
-688,-3255,3538,0,0,0,-6.71999979,-18.48999977,-70.66999817
-688,-3255,3538,0,0,0,-6.71999979,-18.48999977,-70.66999817
-688,-3255,3538,0,0,0,-6.71999979,-18.48999977,-70.66999817
-688,-3255,3538,0,0,0,-6.71999979,-18.48999977,-70.66999817
-688,-3255,3538,0,0,0,-6.71999979,-18.48999977,-70.66999817
-688,-3255,3538,0,0,0,-6.71999979,-18.48999977,-70.66999817
-688,-3255,3538,0,0,0,-6.71999979,-18.48999977,-70.66999817
-611,-3783,3942,0,0,0,-6.71999979,-18.48999977,-70.66999817
-611,-3783,3942,0,0,0,-6.71999979,-18.48999977,-70.66999817
-611,-3783,3942,0,0,0,-6.71999979,-18.48999977,-70.66999817
-611,-3783,3942,0,0,0,-6.71999979,-18.48999977,-70.66999817
-611,-3783,3942,0,0,0,-6.71999979,-18.48999977,-70.66999817
-611,-3783,3942,0,0,0,-6.71999979,-18.48999977,-70.66999817
-611,-3783,3942,0,0,0,-6.71999979,-18.48999977,-70.66999817
97,-3260,4755,0,0,0,-6.71999979,-18.48999977,-70.66999817
97,-3260,4755,0,0,0,-6.71999979,-18.48999977,-70.66999817
97,-3260,4755,0,0,0,-6.71999979,-18.48999977,-70.66999817
97,-3260,4755,0,0,0,-6.71999979,-18.48999977,-70.66999817
97,-3260,4755,0,0,0,-6.71999979,-18.48999977,-70.66999817
97,-3260,4755,0,0,0,-6.71999979,-18.48999977,-70.66999817
97,-3260,4755,0,0,0,-6.71999979,-18.48999977,-70.66999817
-291,-5195,3807,0,0,0,-6.71999979,-18.48999977,-70.66999817
-291,-5195,3807,0,0,0,-6.71999979,-18.48999977,-70.66999817
-291,-5195,3807,0,0,0,-6.71999979,-18.48999977,-70.66999817
-291,-5195,3807,0,0,0,-6.71999979,-18.48999977,-70.66999817
-291,-5195,3807,0,0,0,-6.71999979,-18.48999977,-70.66999817
-291,-5195,3807,0,0,0,-6.71999979,-18.48999977,-70.66999817
-291,-5195,3807,0,0,0,-6.71999979,-18.48999977,-70.66999817
-818,-3912,4150,0,0,0,-6.71999979,-18.48999977,-70.66999817
-818,-3912,4150,0,0,0,-6.71999979,-18.48999977,-70.66999817
-818,-3912,4150,0,0,0,-6.71999979,-18.48999977,-70.66999817
-818,-3912,4150,0,0,0,-6.71999979,-18.48999977,-70.66999817
-818,-3912,4150,0,0,0,-6.71999979,-18.48999977,-70.66999817
-818,-3912,4150,0,0,0,-6.71999979,-18.48999977,-70.66999817
-482,-4701,4940,0,0,0,-6.71999979,-18.48999977,-70.66999817
-482,-4701,4940,0,0,0,-6.71999979,-18.48999977,-70.66999817
-482,-4701,4940,0,0,0,-6.71999979,-18.48999977,-70.66999817
-482,-4701,4940,0,0,0,-6.71999979,-18.48999977,-70.66999817
-482,-4701,4940,0,0,0,-6.71999979,-18.48999977,-70.66999817
-482,-4701,4940,0,0,0,-6.71999979,-18.48999977,-70.66999817
-482,-4701,4940,0,0,0,-6.71999979,-18.48999977,-70.66999817
449,-3277,3340,0,0,0,-6.71999979,-18.48999977,-70.66999817
449,-3277,3340,0,0,0,-6.71999979,-18.48999977,-70.66999817
449,-3277,3340,0,0,0,-6.71999979,-18.48999977,-70.66999817
449,-3277,3340,0,0,0,-6.71999979,-18.48999977,-70.66999817
449,-3277,3340,0,0,0,-6.71999979,-18.48999977,-70.66999817
449,-3277,3340,0,0,0,-6.71999979,-18.48999977,-70.66999817
449,-3277,3340,0,0,0,-6.71999979,-18.48999977,-70.66999817
438,-2809,4176,0,0,0,-6.71999979,-18.48999977,-70.66999817
438,-2809,4176,0,0,0,-6.71999979,-18.48999977,-70.66999817
438,-2809,4176,0,0,0,-6.71999979,-18.48999977,-70.66999817
438,-2809,4176,0,0,0,-6.71999979,-18.48999977,-70.66999817
438,-2809,4176,0,0,0,-6.71999979,-18.48999977,-70.66999817
438,-2809,4176,0,0,0,-6.71999979,-18.48999977,-70.66999817
438,-2809,4176,0,0,0,-6.71999979,-18.48999977,-70.66999817
-657,-3036,3892,0,0,0,-6.71999979,-18.48999977,-70.66999817
-657,-3036,3892,0,0,0,-6.71999979,-18.48999977,-70.66999817
-657,-3036,3892,0,0,0,-6.71999979,-18.48999977,-70.66999817
-657,-3036,3892,0,0,0,-6.71999979,-18.48999977,-70.66999817
-657,-3036,3892,0,0,0,-6.71999979,-18.48999977,-70.66999817
-657,-3036,3892,0,0,0,-6.71999979,-18.48999977,-70.66999817
10,-2410,3507,0,0,0,-6.71999979,-18.48999977,-70.66999817
10,-2410,3507,0,0,0,-6.71999979,-18.48999977,-70.66999817
10,-2410,3507,0,0,0,-6.71999979,-18.48999977,-70.66999817
10,-2410,3507,0,0,0,-6.71999979,-18.48999977,-70.66999817
10,-2410,3507,0,0,0,-6.71999979,-18.48999977,-70.66999817
10,-2410,3507,0,0,0,-6.71999979,-18.48999977,-70.66999817
10,-2410,3507,0,0,0,-6.71999979,-18.48999977,-70.66999817
10,-2410,3507,0,0,0,-6.71999979,-18.48999977,-70.66999817
10,-2410,3507,0,0,0,-5.940000057,-22.80999947,-69.83999634
-510,-3892,1395,0,0,0,-5.940000057,-22.80999947,-69.83999634
-510,-3892,1395,0,0,0,-5.940000057,-22.80999947,-69.83999634
-510,-3892,1395,0,0,0,-5.940000057,-22.80999947,-69.83999634
-510,-3892,1395,0,0,0,-5.940000057,-22.80999947,-69.83999634
-510,-3892,1395,0,0,0,-5.940000057,-22.80999947,-69.83999634
-211,-3259,3569,0,0,0,-5.940000057,-22.80999947,-69.83999634
-211,-3259,3569,0,0,0,-5.940000057,-22.80999947,-69.83999634
-211,-3259,3569,0,0,0,-5.940000057,-22.80999947,-69.83999634
-211,-3259,3569,0,0,0,-5.940000057,-22.80999947,-69.83999634
-211,-3259,3569,0,0,0,-5.940000057,-22.80999947,-69.83999634
-211,-3259,3569,0,0,0,-5.940000057,-22.80999947,-69.83999634
-211,-3259,3569,0,0,0,-5.940000057,-22.80999947,-69.83999634
-817,-3581,3368,0,0,0,-5.940000057,-22.80999947,-69.83999634
-817,-3581,3368,0,0,0,-5.940000057,-22.80999947,-69.83999634
-817,-3581,3368,0,0,0,-5.940000057,-22.80999947,-69.83999634
-817,-3581,3368,0,0,0,-5.940000057,-22.80999947,-69.83999634
-817,-3581,3368,0,0,0,-5.940000057,-22.80999947,-69.83999634
-817,-3581,3368,0,0,0,-5.940000057,-22.80999947,-69.83999634
-817,-3581,3368,0,0,0,-5.940000057,-22.80999947,-69.83999634
-2610,-3602,1666,0,0,0,-5.940000057,-22.80999947,-69.83999634
-2610,-3602,1666,0,0,0,-5.940000057,-22.80999947,-69.83999634
-2610,-3602,1666,0,0,0,-5.940000057,-22.80999947,-69.83999634
-2610,-3602,1666,0,0,0,-5.940000057,-22.80999947,-69.83999634
-2610,-3602,1666,0,0,0,-5.940000057,-22.80999947,-69.83999634
-2610,-3602,1666,0,0,0,-5.940000057,-22.80999947,-69.83999634
-2610,-3602,1666,0,0,0,-5.940000057,-22.80999947,-69.83999634
-1476,-2726,2765,0,0,0,-5.940000057,-22.80999947,-69.83999634
-1476,-2726,2765,0,0,0,-5.940000057,-22.80999947,-69.83999634
-1476,-2726,2765,0,0,0,-5.940000057,-22.80999947,-69.83999634
-1476,-2726,2765,0,0,0,-5.940000057,-22.80999947,-69.83999634
-1476,-2726,2765,0,0,0,-5.940000057,-22.80999947,-69.83999634
-1476,-2726,2765,0,0,0,-5.940000057,-22.80999947,-69.83999634
-1476,-2726,2765,0,0,0,-5.940000057,-22.80999947,-69.83999634
-1500,-3472,3289,0,0,0,-5.940000057,-22.80999947,-69.83999634
-1500,-3472,3289,0,0,0,-5.940000057,-22.80999947,-69.83999634
-1500,-3472,3289,0,0,0,-5.940000057,-22.80999947,-69.83999634
-1500,-3472,3289,0,0,0,-5.940000057,-22.80999947,-69.83999634
-1500,-3472,3289,0,0,0,-5.940000057,-22.80999947,-69.83999634
-1500,-3472,3289,0,0,0,-5.940000057,-22.80999947,-69.83999634
-1500,-3472,3289,0,0,0,-5.940000057,-22.80999947,-69.83999634
-1397,-2539,4153,0,0,0,-5.940000057,-22.80999947,-69.83999634
-1397,-2539,4153,0,0,0,-5.940000057,-22.80999947,-69.83999634
-1397,-2539,4153,0,0,0,-5.940000057,-22.80999947,-69.83999634
-1397,-2539,4153,0,0,0,-5.940000057,-22.80999947,-69.83999634
-1397,-2539,4153,0,0,0,-5.940000057,-22.80999947,-69.83999634
-1397,-2539,4153,0,0,0,-5.940000057,-22.80999947,-69.83999634
-1397,-2539,4153,0,0,0,-5.940000057,-22.80999947,-69.83999634
-1017,-2810,4788,0,0,0,-5.940000057,-22.80999947,-69.83999634
-1017,-2810,4788,0,0,0,-5.940000057,-22.80999947,-69.83999634
-1017,-2810,4788,0,0,0,-5.940000057,-22.80999947,-69.83999634
-1017,-2810,4788,0,0,0,-5.940000057,-22.80999947,-69.83999634
-1017,-2810,4788,0,0,0,-5.940000057,-22.80999947,-69.83999634
-1017,-2810,4788,0,0,0,-5.940000057,-22.80999947,-69.83999634
-727,-3425,5601,0,0,0,-5.940000057,-22.80999947,-69.83999634
-727,-3425,5601,0,0,0,-5.940000057,-22.80999947,-69.83999634
-727,-3425,5601,0,0,0,-5.940000057,-22.80999947,-69.83999634
-727,-3425,5601,0,0,0,-5.940000057,-22.80999947,-69.83999634
-727,-3425,5601,0,0,0,-5.940000057,-22.80999947,-69.83999634
-727,-3425,5601,0,0,0,-5.940000057,-22.80999947,-69.83999634
-727,-3425,5601,0,0,0,-5.940000057,-22.80999947,-69.83999634
-383,-4003,5860,0,0,0,-5.940000057,-22.80999947,-69.83999634
-383,-4003,5860,0,0,0,-5.940000057,-22.80999947,-69.83999634
-383,-4003,5860,0,0,0,-5.940000057,-22.80999947,-69.83999634
-383,-4003,5860,0,0,0,-5.940000057,-22.80999947,-69.83999634
-383,-4003,5860,0,0,0,-5.940000057,-22.80999947,-69.83999634
-383,-4003,5860,0,0,0,-5.940000057,-22.80999947,-69.83999634
-383,-4003,5860,0,0,0,-5.940000057,-22.80999947,-69.83999634
-1114,-6169,2060,0,0,0,-5.940000057,-22.80999947,-69.83999634
-1114,-6169,2060,0,0,0,-5.940000057,-22.80999947,-69.83999634
-1114,-6169,2060,0,0,0,-5.940000057,-22.80999947,-69.83999634
-1114,-6169,2060,0,0,0,-5.940000057,-22.80999947,-69.83999634
-1114,-6169,2060,0,0,0,-5.940000057,-22.80999947,-69.83999634
-1114,-6169,2060,0,0,0,-5.940000057,-22.80999947,-69.83999634
-1114,-6169,2060,0,0,0,-5.940000057,-22.80999947,-69.83999634
-1114,-6169,2060,0,0,0,-1.220000029,-28.60000038,-69.12000275
-1370,-4664,3405,0,0,0,-1.220000029,-28.60000038,-69.12000275
-1370,-4664,3405,0,0,0,-1.220000029,-28.60000038,-69.12000275
-1370,-4664,3405,0,0,0,-1.220000029,-28.60000038,-69.12000275
-1370,-4664,3405,0,0,0,-1.220000029,-28.60000038,-69.12000275
-1370,-4664,3405,0,0,0,-1.220000029,-28.60000038,-69.12000275
-1370,-4664,3405,0,0,0,-1.220000029,-28.60000038,-69.12000275
-1958,-4390,3883,0,0,0,-1.220000029,-28.60000038,-69.12000275
-1958,-4390,3883,0,0,0,-1.220000029,-28.60000038,-69.12000275
-1958,-4390,3883,0,0,0,-1.220000029,-28.60000038,-69.12000275
-1958,-4390,3883,0,0,0,-1.220000029,-28.60000038,-69.12000275
-1958,-4390,3883,0,0,0,-1.220000029,-28.60000038,-69.12000275
-1958,-4390,3883,0,0,0,-1.220000029,-28.60000038,-69.12000275
-1958,-4390,3883,0,0,0,-1.220000029,-28.60000038,-69.12000275
-801,-3676,3823,0,0,0,-1.220000029,-28.60000038,-69.12000275
-801,-3676,3823,0,0,0,-1.220000029,-28.60000038,-69.12000275
-801,-3676,3823,0,0,0,-1.220000029,-28.60000038,-69.12000275
-801,-3676,3823,0,0,0,-1.220000029,-28.60000038,-69.12000275
-801,-3676,3823,0,0,0,-1.220000029,-28.60000038,-69.12000275
-801,-3676,3823,0,0,0,-1.220000029,-28.60000038,-69.12000275
-801,-3676,3823,0,0,0,-1.220000029,-28.60000038,-69.12000275
-554,-3591,5019,0,0,0,-1.220000029,-28.60000038,-69.12000275
-554,-3591,5019,0,0,0,-1.220000029,-28.60000038,-69.12000275
-554,-3591,5019,0,0,0,-1.220000029,-28.60000038,-69.12000275
-554,-3591,5019,0,0,0,-1.220000029,-28.60000038,-69.12000275
-554,-3591,5019,0,0,0,-1.220000029,-28.60000038,-69.12000275
-554,-3591,5019,0,0,0,-1.220000029,-28.60000038,-69.12000275
-554,-3591,5019,0,0,0,-1.220000029,-28.60000038,-69.12000275
-1335,-3583,3986,0,0,0,-1.220000029,-28.60000038,-69.12000275
-1335,-3583,3986,0,0,0,-1.220000029,-28.60000038,-69.12000275
-1335,-3583,3986,0,0,0,-1.220000029,-28.60000038,-69.12000275
-1335,-3583,3986,0,0,0,-1.220000029,-28.60000038,-69.12000275
-1335,-3583,3986,0,0,0,-1.220000029,-28.60000038,-69.12000275
-1335,-3583,3986,0,0,0,-1.220000029,-28.60000038,-69.12000275
-860,-2921,6883,0,0,0,-1.220000029,-28.60000038,-69.12000275
-860,-2921,6883,0,0,0,-1.220000029,-28.60000038,-69.12000275
-860,-2921,6883,0,0,0,-1.220000029,-28.60000038,-69.12000275
-860,-2921,6883,0,0,0,-1.220000029,-28.60000038,-69.12000275
-860,-2921,6883,0,0,0,-1.220000029,-28.60000038,-69.12000275
-860,-2921,6883,0,0,0,-1.220000029,-28.60000038,-69.12000275
-860,-2921,6883,0,0,0,-1.220000029,-28.60000038,-69.12000275
-747,-3057,5119,0,0,0,-1.220000029,-28.60000038,-69.12000275
-747,-3057,5119,0,0,0,-1.220000029,-28.60000038,-69.12000275
-747,-3057,5119,0,0,0,-1.220000029,-28.60000038,-69.12000275
-747,-3057,5119,0,0,0,-1.220000029,-28.60000038,-69.12000275
-747,-3057,5119,0,0,0,-1.220000029,-28.60000038,-69.12000275
-747,-3057,5119,0,0,0,-1.220000029,-28.60000038,-69.12000275
-747,-3057,5119,0,0,0,-1.220000029,-28.60000038,-69.12000275
-429,-2149,5987,0,0,0,-1.220000029,-28.60000038,-69.12000275
-429,-2149,5987,0,0,0,-1.220000029,-28.60000038,-69.12000275
-429,-2149,5987,0,0,0,-1.220000029,-28.60000038,-69.12000275
-429,-2149,5987,0,0,0,-1.220000029,-28.60000038,-69.12000275
-429,-2149,5987,0,0,0,-1.220000029,-28.60000038,-69.12000275
-429,-2149,5987,0,0,0,-1.220000029,-28.60000038,-69.12000275
-429,-2149,5987,0,0,0,-1.220000029,-28.60000038,-69.12000275
-331,-2536,6952,0,0,0,-1.220000029,-28.60000038,-69.12000275
-331,-2536,6952,0,0,0,-1.220000029,-28.60000038,-69.12000275
-331,-2536,6952,0,0,0,-1.220000029,-28.60000038,-69.12000275
-331,-2536,6952,0,0,0,-1.220000029,-28.60000038,-69.12000275
-331,-2536,6952,0,0,0,-1.220000029,-28.60000038,-69.12000275
-331,-2536,6952,0,0,0,-1.220000029,-28.60000038,-69.12000275
-331,-2536,6952,0,0,0,-1.220000029,-28.60000038,-69.12000275
-684,-2075,6326,0,0,0,-1.220000029,-28.60000038,-69.12000275
-684,-2075,6326,0,0,0,-1.220000029,-28.60000038,-69.12000275
-684,-2075,6326,0,0,0,-1.220000029,-28.60000038,-69.12000275
-684,-2075,6326,0,0,0,-1.220000029,-28.60000038,-69.12000275
-684,-2075,6326,0,0,0,-1.220000029,-28.60000038,-69.12000275
-684,-2075,6326,0,0,0,-1.220000029,-28.60000038,-69.12000275
-684,-2075,6326,0,0,0,-1.220000029,-28.60000038,-69.12000275
-239,-1745,7895,0,0,0,-1.220000029,-28.60000038,-69.12000275
-239,-1745,7895,0,0,0,-1.220000029,-28.60000038,-69.12000275
-239,-1745,7895,0,0,0,-1.220000029,-28.60000038,-69.12000275
-239,-1745,7895,0,0,0,-1.220000029,-28.60000038,-69.12000275
-239,-1745,7895,0,0,0,-1.220000029,-28.60000038,-69.12000275
-239,-1745,7895,0,0,0,-1.220000029,-28.60000038,-69.12000275
-239,-1745,7895,0,0,0,-1.220000029,-28.60000038,-69.12000275
-239,-1745,7895,0,0,0,2.9300000667572,-30.78000069,-68.06999969
-819,-2673,4662,0,0,0,2.9300000667572,-30.78000069,-68.06999969
-819,-2673,4662,0,0,0,2.9300000667572,-30.78000069,-68.06999969
-819,-2673,4662,0,0,0,2.9300000667572,-30.78000069,-68.06999969
-819,-2673,4662,0,0,0,2.9300000667572,-30.78000069,-68.06999969
-819,-2673,4662,0,0,0,2.9300000667572,-30.78000069,-68.06999969
-819,-2673,4662,0,0,0,2.9300000667572,-30.78000069,-68.06999969
-384,-2156,5518,0,0,0,2.9300000667572,-30.78000069,-68.06999969
-384,-2156,5518,0,0,0,2.9300000667572,-30.78000069,-68.06999969
-384,-2156,5518,0,0,0,2.9300000667572,-30.78000069,-68.06999969
-384,-2156,5518,0,0,0,2.9300000667572,-30.78000069,-68.06999969
-384,-2156,5518,0,0,0,2.9300000667572,-30.78000069,-68.06999969
-384,-2156,5518,0,0,0,2.9300000667572,-30.78000069,-68.06999969
-384,-2156,5518,0,0,0,2.9300000667572,-30.78000069,-68.06999969
-545,-2871,5649,0,0,0,2.9300000667572,-30.78000069,-68.06999969
-545,-2871,5649,0,0,0,2.9300000667572,-30.78000069,-68.06999969
-545,-2871,5649,0,0,0,2.9300000667572,-30.78000069,-68.06999969
-545,-2871,5649,0,0,0,2.9300000667572,-30.78000069,-68.06999969
-545,-2871,5649,0,0,0,2.9300000667572,-30.78000069,-68.06999969
-545,-2871,5649,0,0,0,2.9300000667572,-30.78000069,-68.06999969
-846,-2558,6102,0,0,0,2.9300000667572,-30.78000069,-68.06999969
-846,-2558,6102,0,0,0,2.9300000667572,-30.78000069,-68.06999969
-846,-2558,6102,0,0,0,2.9300000667572,-30.78000069,-68.06999969
-846,-2558,6102,0,0,0,2.9300000667572,-30.78000069,-68.06999969
-846,-2558,6102,0,0,0,2.9300000667572,-30.78000069,-68.06999969
-846,-2558,6102,0,0,0,2.9300000667572,-30.78000069,-68.06999969
-846,-2558,6102,0,0,0,2.9300000667572,-30.78000069,-68.06999969
-846,-2558,6102,0,0,0,2.9300000667572,-30.78000069,-68.06999969
-800,-3096,7015,0,0,0,2.9300000667572,-30.78000069,-68.06999969
-800,-3096,7015,0,0,0,2.9300000667572,-30.78000069,-68.06999969
-800,-3096,7015,0,0,0,2.9300000667572,-30.78000069,-68.06999969
-800,-3096,7015,0,0,0,2.9300000667572,-30.78000069,-68.06999969
-800,-3096,7015,0,0,0,2.9300000667572,-30.78000069,-68.06999969
-800,-3096,7015,0,0,0,2.9300000667572,-30.78000069,-68.06999969
-636,-3290,5180,0,0,0,2.9300000667572,-30.78000069,-68.06999969
-636,-3290,5180,0,0,0,2.9300000667572,-30.78000069,-68.06999969
-636,-3290,5180,0,0,0,2.9300000667572,-30.78000069,-68.06999969
-636,-3290,5180,0,0,0,2.9300000667572,-30.78000069,-68.06999969
-636,-3290,5180,0,0,0,2.9300000667572,-30.78000069,-68.06999969
-636,-3290,5180,0,0,0,2.9300000667572,-30.78000069,-68.06999969
-636,-3290,5180,0,0,0,2.9300000667572,-30.78000069,-68.06999969
-462,-2971,6100,0,0,0,2.9300000667572,-30.78000069,-68.06999969
-462,-2971,6100,0,0,0,2.9300000667572,-30.78000069,-68.06999969
-462,-2971,6100,0,0,0,2.9300000667572,-30.78000069,-68.06999969
-462,-2971,6100,0,0,0,2.9300000667572,-30.78000069,-68.06999969
-462,-2971,6100,0,0,0,2.9300000667572,-30.78000069,-68.06999969
-462,-2971,6100,0,0,0,2.9300000667572,-30.78000069,-68.06999969
-462,-2971,6100,0,0,0,2.9300000667572,-30.78000069,-68.06999969
-676,-3363,6501,0,0,0,2.9300000667572,-30.78000069,-68.06999969
-676,-3363,6501,0,0,0,2.9300000667572,-30.78000069,-68.06999969
-676,-3363,6501,0,0,0,2.9300000667572,-30.78000069,-68.06999969
-676,-3363,6501,0,0,0,2.9300000667572,-30.78000069,-68.06999969
-676,-3363,6501,0,0,0,2.9300000667572,-30.78000069,-68.06999969
-676,-3363,6501,0,0,0,2.9300000667572,-30.78000069,-68.06999969
-676,-3363,6501,0,0,0,2.9300000667572,-30.78000069,-68.06999969
-623,-3243,7444,0,0,0,2.9300000667572,-30.78000069,-68.06999969
-623,-3243,7444,0,0,0,2.9300000667572,-30.78000069,-68.06999969
-623,-3243,7444,0,0,0,2.9300000667572,-30.78000069,-68.06999969
-623,-3243,7444,0,0,0,2.9300000667572,-30.78000069,-68.06999969
-623,-3243,7444,0,0,0,2.9300000667572,-30.78000069,-68.06999969
-623,-3243,7444,0,0,0,2.9300000667572,-30.78000069,-68.06999969
-623,-3243,7444,0,0,0,2.9300000667572,-30.78000069,-68.06999969
-269,-2432,7462,0,0,0,2.9300000667572,-30.78000069,-68.06999969
-269,-2432,7462,0,0,0,2.9300000667572,-30.78000069,-68.06999969
-269,-2432,7462,0,0,0,2.9300000667572,-30.78000069,-68.06999969
-269,-2432,7462,0,0,0,2.9300000667572,-30.78000069,-68.06999969
-269,-2432,7462,0,0,0,2.9300000667572,-30.78000069,-68.06999969
-269,-2432,7462,0,0,0,2.9300000667572,-30.78000069,-68.06999969
-269,-2432,7462,0,0,0,2.9300000667572,-30.78000069,-68.06999969
-506,-3081,7274,0,0,0,2.9300000667572,-30.78000069,-68.06999969
-506,-3081,7274,0,0,0,2.9300000667572,-30.78000069,-68.06999969
-506,-3081,7274,0,0,0,2.9300000667572,-30.78000069,-68.06999969
-506,-3081,7274,0,0,0,2.9300000667572,-30.78000069,-68.06999969
-506,-3081,7274,0,0,0,2.9300000667572,-30.78000069,-68.06999969
-506,-3081,7274,0,0,0,2.9300000667572,-30.78000069,-68.06999969
-506,-3081,7274,0,0,0,2.9300000667572,-30.78000069,-68.06999969
-506,-3081,7274,0,0,0,5.82000017166138,-25.43000031,-66.66999817
-677,-3033,6625,0,0,0,5.82000017166138,-25.43000031,-66.66999817
-677,-3033,6625,0,0,0,5.82000017166138,-25.43000031,-66.66999817
-677,-3033,6625,0,0,0,5.82000017166138,-25.43000031,-66.66999817
-677,-3033,6625,0,0,0,5.82000017166138,-25.43000031,-66.66999817
-677,-3033,6625,0,0,0,5.82000017166138,-25.43000031,-66.66999817
-677,-3033,6625,0,0,0,5.82000017166138,-25.43000031,-66.66999817
-2040,-3609,5884,0,0,0,5.82000017166138,-25.43000031,-66.66999817
-2040,-3609,5884,0,0,0,5.82000017166138,-25.43000031,-66.66999817
-2040,-3609,5884,0,0,0,5.82000017166138,-25.43000031,-66.66999817
-2040,-3609,5884,0,0,0,5.82000017166138,-25.43000031,-66.66999817
-2040,-3609,5884,0,0,0,5.82000017166138,-25.43000031,-66.66999817
-2040,-3609,5884,0,0,0,5.82000017166138,-25.43000031,-66.66999817
-2040,-3609,5884,0,0,0,5.82000017166138,-25.43000031,-66.66999817
-1342,-2439,6391,0,0,0,5.82000017166138,-25.43000031,-66.66999817
-1342,-2439,6391,0,0,0,5.82000017166138,-25.43000031,-66.66999817
-1342,-2439,6391,0,0,0,5.82000017166138,-25.43000031,-66.66999817
-1342,-2439,6391,0,0,0,5.82000017166138,-25.43000031,-66.66999817
-1342,-2439,6391,0,0,0,5.82000017166138,-25.43000031,-66.66999817
-1342,-2439,6391,0,0,0,5.82000017166138,-25.43000031,-66.66999817
-1342,-2439,6391,0,0,0,5.82000017166138,-25.43000031,-66.66999817
-1560,-2625,5471,0,0,0,5.82000017166138,-25.43000031,-66.66999817
-1560,-2625,5471,0,0,0,5.82000017166138,-25.43000031,-66.66999817
-1560,-2625,5471,0,0,0,5.82000017166138,-25.43000031,-66.66999817
-1560,-2625,5471,0,0,0,5.82000017166138,-25.43000031,-66.66999817
-1560,-2625,5471,0,0,0,5.82000017166138,-25.43000031,-66.66999817
-1560,-2625,5471,0,0,0,5.82000017166138,-25.43000031,-66.66999817
-1118,-2304,6471,0,0,0,5.82000017166138,-25.43000031,-66.66999817
-1118,-2304,6471,0,0,0,5.82000017166138,-25.43000031,-66.66999817
-1118,-2304,6471,0,0,0,5.82000017166138,-25.43000031,-66.66999817
-1118,-2304,6471,0,0,0,5.82000017166138,-25.43000031,-66.66999817
-1118,-2304,6471,0,0,0,5.82000017166138,-25.43000031,-66.66999817
-1118,-2304,6471,0,0,0,5.82000017166138,-25.43000031,-66.66999817
-1118,-2304,6471,0,0,0,5.82000017166138,-25.43000031,-66.66999817
-1118,-2304,6471,0,0,0,5.82000017166138,-25.43000031,-66.66999817
-1271,-1117,6098,0,0,0,5.82000017166138,-25.43000031,-66.66999817
-1271,-1117,6098,0,0,0,5.82000017166138,-25.43000031,-66.66999817
-1271,-1117,6098,0,0,0,5.82000017166138,-25.43000031,-66.66999817
-1271,-1117,6098,0,0,0,5.82000017166138,-25.43000031,-66.66999817
-1271,-1117,6098,0,0,0,5.82000017166138,-25.43000031,-66.66999817
-1271,-1117,6098,0,0,0,5.82000017166138,-25.43000031,-66.66999817
-1830,-2286,4291,0,0,0,5.82000017166138,-25.43000031,-66.66999817
-1830,-2286,4291,0,0,0,5.82000017166138,-25.43000031,-66.66999817
-1830,-2286,4291,0,0,0,5.82000017166138,-25.43000031,-66.66999817
-1830,-2286,4291,0,0,0,5.82000017166138,-25.43000031,-66.66999817
-1830,-2286,4291,0,0,0,5.82000017166138,-25.43000031,-66.66999817
-1830,-2286,4291,0,0,0,5.82000017166138,-25.43000031,-66.66999817
-1830,-2286,4291,0,0,0,5.82000017166138,-25.43000031,-66.66999817
-1141,-1789,5189,0,0,0,5.82000017166138,-25.43000031,-66.66999817
-1141,-1789,5189,0,0,0,5.82000017166138,-25.43000031,-66.66999817
-1141,-1789,5189,0,0,0,5.82000017166138,-25.43000031,-66.66999817
-1141,-1789,5189,0,0,0,5.82000017166138,-25.43000031,-66.66999817
-1141,-1789,5189,0,0,0,5.82000017166138,-25.43000031,-66.66999817
-1141,-1789,5189,0,0,0,5.82000017166138,-25.43000031,-66.66999817
-1141,-1789,5189,0,0,0,5.82000017166138,-25.43000031,-66.66999817
-1626,-1955,4020,0,0,0,5.82000017166138,-25.43000031,-66.66999817
-1626,-1955,4020,0,0,0,5.82000017166138,-25.43000031,-66.66999817
-1626,-1955,4020,0,0,0,5.82000017166138,-25.43000031,-66.66999817
-1626,-1955,4020,0,0,0,5.82000017166138,-25.43000031,-66.66999817
-1626,-1955,4020,0,0,0,5.82000017166138,-25.43000031,-66.66999817
-1626,-1955,4020,0,0,0,5.82000017166138,-25.43000031,-66.66999817
-1626,-1955,4020,0,0,0,5.82000017166138,-25.43000031,-66.66999817
-383,276,4413,0,0,0,5.82000017166138,-25.43000031,-66.66999817
-383,276,4413,0,0,0,5.82000017166138,-25.43000031,-66.66999817
-383,276,4413,0,0,0,5.82000017166138,-25.43000031,-66.66999817
-383,276,4413,0,0,0,5.82000017166138,-25.43000031,-66.66999817
-383,276,4413,0,0,0,5.82000017166138,-25.43000031,-66.66999817
-383,276,4413,0,0,0,5.82000017166138,-25.43000031,-66.66999817
-383,276,4413,0,0,0,5.82000017166138,-25.43000031,-66.66999817
-467,260,4517,0,0,0,5.82000017166138,-25.43000031,-66.66999817
-467,260,4517,0,0,0,5.82000017166138,-25.43000031,-66.66999817
-467,260,4517,0,0,0,5.82000017166138,-25.43000031,-66.66999817
-467,260,4517,0,0,0,5.82000017166138,-25.43000031,-66.66999817
-467,260,4517,0,0,0,5.82000017166138,-25.43000031,-66.66999817
-467,260,4517,0,0,0,5.82000017166138,-25.43000031,-66.66999817
-467,260,4517,0,0,0,5.82000017166138,-25.43000031,-66.66999817
-467,260,4517,0,0,0,10.4799995422363,-16.02000046,-64.97000122
-288,814,5561,0,0,0,10.4799995422363,-16.02000046,-64.97000122
-288,814,5561,0,0,0,10.4799995422363,-16.02000046,-64.97000122
-288,814,5561,0,0,0,10.4799995422363,-16.02000046,-64.97000122
-288,814,5561,0,0,0,10.4799995422363,-16.02000046,-64.97000122
-288,814,5561,0,0,0,10.4799995422363,-16.02000046,-64.97000122
-288,814,5561,0,0,0,10.4799995422363,-16.02000046,-64.97000122
-441,824,5370,-57,0,0,10.4799995422363,-16.02000046,-64.97000122
-441,824,5370,-57,0,0,10.4799995422363,-16.02000046,-64.97000122
-441,824,5370,-57,0,0,10.4799995422363,-16.02000046,-64.97000122
-441,824,5370,-57,0,0,10.4799995422363,-16.02000046,-64.97000122
-441,824,5370,-57,0,0,10.4799995422363,-16.02000046,-64.97000122
-441,824,5370,-57,0,0,10.4799995422363,-16.02000046,-64.97000122
-441,824,5370,-57,0,0,10.4799995422363,-16.02000046,-64.97000122
-935,-1601,4811,-57,0,0,10.4799995422363,-16.02000046,-64.97000122
-935,-1601,4811,-57,0,0,10.4799995422363,-16.02000046,-64.97000122
-935,-1601,4811,-57,0,0,10.4799995422363,-16.02000046,-64.97000122
-935,-1601,4811,-57,0,0,10.4799995422363,-16.02000046,-64.97000122
-935,-1601,4811,-57,0,0,10.4799995422363,-16.02000046,-64.97000122
-935,-1601,4811,-57,0,0,10.4799995422363,-16.02000046,-64.97000122
-935,-1601,4811,-57,0,0,10.4799995422363,-16.02000046,-64.97000122
-31,-1184,5502,-57,0,0,10.4799995422363,-16.02000046,-64.97000122
-31,-1184,5502,-57,0,0,10.4799995422363,-16.02000046,-64.97000122
-31,-1184,5502,-57,0,0,10.4799995422363,-16.02000046,-64.97000122
-31,-1184,5502,-57,0,0,10.4799995422363,-16.02000046,-64.97000122
-31,-1184,5502,-57,0,0,10.4799995422363,-16.02000046,-64.97000122
-31,-1184,5502,-57,0,0,10.4799995422363,-16.02000046,-64.97000122
-31,-1184,5502,-57,0,0,10.4799995422363,-16.02000046,-64.97000122
-814,-2693,2190,-57,0,0,10.4799995422363,-16.02000046,-64.97000122
-814,-2693,2190,-57,0,0,10.4799995422363,-16.02000046,-64.97000122
-814,-2693,2190,-57,0,0,10.4799995422363,-16.02000046,-64.97000122
-814,-2693,2190,-57,0,0,10.4799995422363,-16.02000046,-64.97000122
-814,-2693,2190,-57,0,0,10.4799995422363,-16.02000046,-64.97000122
-814,-2693,2190,-57,0,0,10.4799995422363,-16.02000046,-64.97000122
-814,-2693,2190,-57,0,0,10.4799995422363,-16.02000046,-64.97000122
115,-3139,4039,0,0,0,10.4799995422363,-16.02000046,-64.97000122
115,-3139,4039,0,0,0,10.4799995422363,-16.02000046,-64.97000122
115,-3139,4039,0,0,0,10.4799995422363,-16.02000046,-64.97000122
115,-3139,4039,0,0,0,10.4799995422363,-16.02000046,-64.97000122
115,-3139,4039,0,0,0,10.4799995422363,-16.02000046,-64.97000122
115,-3139,4039,0,0,0,10.4799995422363,-16.02000046,-64.97000122
115,-3139,4039,0,0,0,10.4799995422363,-16.02000046,-64.97000122
-62,-3240,3250,0,0,0,10.4799995422363,-16.02000046,-64.97000122
-62,-3240,3250,0,0,0,10.4799995422363,-16.02000046,-64.97000122
-62,-3240,3250,0,0,0,10.4799995422363,-16.02000046,-64.97000122
-62,-3240,3250,0,0,0,10.4799995422363,-16.02000046,-64.97000122
-62,-3240,3250,0,0,0,10.4799995422363,-16.02000046,-64.97000122
-62,-3240,3250,0,0,0,10.4799995422363,-16.02000046,-64.97000122
-878,-4296,4656,0,0,0,10.4799995422363,-16.02000046,-64.97000122
-878,-4296,4656,0,0,0,10.4799995422363,-16.02000046,-64.97000122
-878,-4296,4656,0,0,0,10.4799995422363,-16.02000046,-64.97000122
-878,-4296,4656,0,0,0,10.4799995422363,-16.02000046,-64.97000122
-878,-4296,4656,0,0,0,10.4799995422363,-16.02000046,-64.97000122
-878,-4296,4656,0,0,0,10.4799995422363,-16.02000046,-64.97000122
-878,-4296,4656,0,0,0,10.4799995422363,-16.02000046,-64.97000122
-878,-4296,4656,0,0,0,10.4799995422363,-16.02000046,-64.97000122
-214,-4144,7340,0,0,0,10.4799995422363,-16.02000046,-64.97000122
-214,-4144,7340,0,0,0,10.4799995422363,-16.02000046,-64.97000122
-214,-4144,7340,0,0,0,10.4799995422363,-16.02000046,-64.97000122
-214,-4144,7340,0,0,0,10.4799995422363,-16.02000046,-64.97000122
-214,-4144,7340,0,0,0,10.4799995422363,-16.02000046,-64.97000122
-214,-4144,7340,0,0,0,10.4799995422363,-16.02000046,-64.97000122
-383,-5325,3682,0,0,0,10.4799995422363,-16.02000046,-64.97000122
-383,-5325,3682,0,0,0,10.4799995422363,-16.02000046,-64.97000122
-383,-5325,3682,0,0,0,10.4799995422363,-16.02000046,-64.97000122
-383,-5325,3682,0,0,0,10.4799995422363,-16.02000046,-64.97000122
-383,-5325,3682,0,0,0,10.4799995422363,-16.02000046,-64.97000122
-383,-5325,3682,0,0,0,10.4799995422363,-16.02000046,-64.97000122
-383,-5325,3682,0,0,0,10.4799995422363,-16.02000046,-64.97000122
-130,-4362,5387,0,0,0,10.4799995422363,-16.02000046,-64.97000122
-130,-4362,5387,0,0,0,10.4799995422363,-16.02000046,-64.97000122
-130,-4362,5387,0,0,0,10.4799995422363,-16.02000046,-64.97000122
-130,-4362,5387,0,0,0,10.4799995422363,-16.02000046,-64.97000122
-130,-4362,5387,0,0,0,10.4799995422363,-16.02000046,-64.97000122
-130,-4362,5387,0,0,0,10.4799995422363,-16.02000046,-64.97000122
-130,-4362,5387,0,0,0,10.4799995422363,-16.02000046,-64.97000122
-130,-4362,5387,0,0,0,10.6499996185303,-32.90999985,-63.70999908
-130,-4362,5387,0,0,0,10.6499996185303,-32.90999985,-63.70999908
-142,-4701,4989,57,0,0,10.6499996185303,-32.90999985,-63.70999908
-142,-4701,4989,57,0,0,10.6499996185303,-32.90999985,-63.70999908
-142,-4701,4989,57,0,0,10.6499996185303,-32.90999985,-63.70999908
-142,-4701,4989,57,0,0,10.6499996185303,-32.90999985,-63.70999908
-142,-4701,4989,57,0,0,10.6499996185303,-32.90999985,-63.70999908
115,-4468,6086,57,0,0,10.6499996185303,-32.90999985,-63.70999908
115,-4468,6086,57,0,0,10.6499996185303,-32.90999985,-63.70999908
115,-4468,6086,57,0,0,10.6499996185303,-32.90999985,-63.70999908
115,-4468,6086,57,0,0,10.6499996185303,-32.90999985,-63.70999908
115,-4468,6086,57,0,0,10.6499996185303,-32.90999985,-63.70999908
115,-4468,6086,57,0,0,10.6499996185303,-32.90999985,-63.70999908
115,-4468,6086,57,0,0,10.6499996185303,-32.90999985,-63.70999908
-836,-3402,5971,57,0,0,10.6499996185303,-32.90999985,-63.70999908
-836,-3402,5971,57,0,0,10.6499996185303,-32.90999985,-63.70999908
-836,-3402,5971,57,0,0,10.6499996185303,-32.90999985,-63.70999908
-836,-3402,5971,57,0,0,10.6499996185303,-32.90999985,-63.70999908
-836,-3402,5971,57,0,0,10.6499996185303,-32.90999985,-63.70999908
-836,-3402,5971,57,0,0,10.6499996185303,-32.90999985,-63.70999908
-836,-3402,5971,57,0,0,10.6499996185303,-32.90999985,-63.70999908
-1368,-4944,3614,57,0,0,10.6499996185303,-32.90999985,-63.70999908
-1368,-4944,3614,57,0,0,10.6499996185303,-32.90999985,-63.70999908
-1368,-4944,3614,57,0,0,10.6499996185303,-32.90999985,-63.70999908
-1368,-4944,3614,57,0,0,10.6499996185303,-32.90999985,-63.70999908
-1368,-4944,3614,57,0,0,10.6499996185303,-32.90999985,-63.70999908
-1368,-4944,3614,57,0,0,10.6499996185303,-32.90999985,-63.70999908
-1368,-4944,3614,57,0,0,10.6499996185303,-32.90999985,-63.70999908
-539,-3996,4275,0,0,0,10.6499996185303,-32.90999985,-63.70999908
-539,-3996,4275,0,0,0,10.6499996185303,-32.90999985,-63.70999908
-539,-3996,4275,0,0,0,10.6499996185303,-32.90999985,-63.70999908
-539,-3996,4275,0,0,0,10.6499996185303,-32.90999985,-63.70999908
-539,-3996,4275,0,0,0,10.6499996185303,-32.90999985,-63.70999908
-539,-3996,4275,0,0,0,10.6499996185303,-32.90999985,-63.70999908
-539,-3996,4275,0,0,0,10.6499996185303,-32.90999985,-63.70999908
-253,-2902,4001,0,0,0,10.6499996185303,-32.90999985,-63.70999908
-253,-2902,4001,0,0,0,10.6499996185303,-32.90999985,-63.70999908
-253,-2902,4001,0,0,0,10.6499996185303,-32.90999985,-63.70999908
-253,-2902,4001,0,0,0,10.6499996185303,-32.90999985,-63.70999908
-253,-2902,4001,0,0,0,10.6499996185303,-32.90999985,-63.70999908
-253,-2902,4001,0,0,0,10.6499996185303,-32.90999985,-63.70999908
-253,-2902,4001,0,0,0,10.6499996185303,-32.90999985,-63.70999908
-357,-2170,4791,0,0,0,10.6499996185303,-32.90999985,-63.70999908
-357,-2170,4791,0,0,0,10.6499996185303,-32.90999985,-63.70999908
-357,-2170,4791,0,0,0,10.6499996185303,-32.90999985,-63.70999908
-357,-2170,4791,0,0,0,10.6499996185303,-32.90999985,-63.70999908
-357,-2170,4791,0,0,0,10.6499996185303,-32.90999985,-63.70999908
-357,-2170,4791,0,0,0,10.6499996185303,-32.90999985,-63.70999908
-357,-2170,4791,0,0,0,10.6499996185303,-32.90999985,-63.70999908
-753,-2483,4763,0,0,0,10.6499996185303,-32.90999985,-63.70999908
-753,-2483,4763,0,0,0,10.6499996185303,-32.90999985,-63.70999908
-753,-2483,4763,0,0,0,10.6499996185303,-32.90999985,-63.70999908
-753,-2483,4763,0,0,0,10.6499996185303,-32.90999985,-63.70999908
-753,-2483,4763,0,0,0,10.6499996185303,-32.90999985,-63.70999908
-753,-2483,4763,0,0,0,10.6499996185303,-32.90999985,-63.70999908
-552,-3629,3959,0,0,0,10.6499996185303,-32.90999985,-63.70999908
-552,-3629,3959,0,0,0,10.6499996185303,-32.90999985,-63.70999908
-552,-3629,3959,0,0,0,10.6499996185303,-32.90999985,-63.70999908
-552,-3629,3959,0,0,0,10.6499996185303,-32.90999985,-63.70999908
-552,-3629,3959,0,0,0,10.6499996185303,-32.90999985,-63.70999908
-552,-3629,3959,0,0,0,10.6499996185303,-32.90999985,-63.70999908
-552,-3629,3959,0,0,0,10.6499996185303,-32.90999985,-63.70999908
-771,-3040,4170,0,0,0,10.6499996185303,-32.90999985,-63.70999908
-771,-3040,4170,0,0,0,10.6499996185303,-32.90999985,-63.70999908
-771,-3040,4170,0,0,0,10.6499996185303,-32.90999985,-63.70999908
-771,-3040,4170,0,0,0,10.6499996185303,-32.90999985,-63.70999908
-771,-3040,4170,0,0,0,10.6499996185303,-32.90999985,-63.70999908
-771,-3040,4170,0,0,0,10.6499996185303,-32.90999985,-63.70999908
-771,-3040,4170,0,0,0,10.6499996185303,-32.90999985,-63.70999908
-2306,-3647,3026,-57,0,0,10.6499996185303,-32.90999985,-63.70999908
-2306,-3647,3026,-57,0,0,10.6499996185303,-32.90999985,-63.70999908
-2306,-3647,3026,-57,0,0,10.6499996185303,-32.90999985,-63.70999908
-2306,-3647,3026,-57,0,0,10.6499996185303,-32.90999985,-63.70999908
-2306,-3647,3026,-57,0,0,10.6499996185303,-32.90999985,-63.70999908
-2306,-3647,3026,-57,0,0,10.6499996185303,-32.90999985,-63.70999908
-2306,-3647,3026,-57,0,0,10.6499996185303,-32.90999985,-63.70999908
-2306,-3647,3026,-57,0,0,13.1499996185303,-30.73999977,-63.29999924
-2306,-3647,3026,-57,0,0,13.1499996185303,-30.73999977,-63.29999924
-501,-3466,3417,0,0,0,13.1499996185303,-30.73999977,-63.29999924
-501,-3466,3417,0,0,0,13.1499996185303,-30.73999977,-63.29999924
-501,-3466,3417,0,0,0,13.1499996185303,-30.73999977,-63.29999924
-501,-3466,3417,0,0,0,13.1499996185303,-30.73999977,-63.29999924
-501,-3466,3417,0,0,0,13.1499996185303,-30.73999977,-63.29999924
-1224,-3649,2910,0,0,0,13.1499996185303,-30.73999977,-63.29999924
-1224,-3649,2910,0,0,0,13.1499996185303,-30.73999977,-63.29999924
-1224,-3649,2910,0,0,0,13.1499996185303,-30.73999977,-63.29999924
-1224,-3649,2910,0,0,0,13.1499996185303,-30.73999977,-63.29999924
-1224,-3649,2910,0,0,0,13.1499996185303,-30.73999977,-63.29999924
-1224,-3649,2910,0,0,0,13.1499996185303,-30.73999977,-63.29999924
-1224,-3649,2910,0,0,0,13.1499996185303,-30.73999977,-63.29999924
-1496,-3565,2365,0,0,0,13.1499996185303,-30.73999977,-63.29999924
-1496,-3565,2365,0,0,0,13.1499996185303,-30.73999977,-63.29999924
-1496,-3565,2365,0,0,0,13.1499996185303,-30.73999977,-63.29999924
-1496,-3565,2365,0,0,0,13.1499996185303,-30.73999977,-63.29999924
-1496,-3565,2365,0,0,0,13.1499996185303,-30.73999977,-63.29999924
-1496,-3565,2365,0,0,0,13.1499996185303,-30.73999977,-63.29999924
-1496,-3565,2365,0,0,0,13.1499996185303,-30.73999977,-63.29999924
-1257,-3826,3335,0,0,0,13.1499996185303,-30.73999977,-63.29999924
-1257,-3826,3335,0,0,0,13.1499996185303,-30.73999977,-63.29999924
-1257,-3826,3335,0,0,0,13.1499996185303,-30.73999977,-63.29999924
-1257,-3826,3335,0,0,0,13.1499996185303,-30.73999977,-63.29999924
-1257,-3826,3335,0,0,0,13.1499996185303,-30.73999977,-63.29999924
-1257,-3826,3335,0,0,0,13.1499996185303,-30.73999977,-63.29999924
-1257,-3826,3335,0,0,0,13.1499996185303,-30.73999977,-63.29999924
-1751,-4691,1568,0,0,0,13.1499996185303,-30.73999977,-63.29999924
-1751,-4691,1568,0,0,0,13.1499996185303,-30.73999977,-63.29999924
-1751,-4691,1568,0,0,0,13.1499996185303,-30.73999977,-63.29999924
-1751,-4691,1568,0,0,0,13.1499996185303,-30.73999977,-63.29999924
-1751,-4691,1568,0,0,0,13.1499996185303,-30.73999977,-63.29999924
-1751,-4691,1568,0,0,0,13.1499996185303,-30.73999977,-63.29999924
-1751,-4691,1568,0,0,0,13.1499996185303,-30.73999977,-63.29999924
-1479,-4172,3758,0,0,0,13.1499996185303,-30.73999977,-63.29999924
-1479,-4172,3758,0,0,0,13.1499996185303,-30.73999977,-63.29999924
-1479,-4172,3758,0,0,0,13.1499996185303,-30.73999977,-63.29999924
-1479,-4172,3758,0,0,0,13.1499996185303,-30.73999977,-63.29999924
-1479,-4172,3758,0,0,0,13.1499996185303,-30.73999977,-63.29999924
-1479,-4172,3758,0,0,0,13.1499996185303,-30.73999977,-63.29999924
-1479,-4172,3758,0,0,0,13.1499996185303,-30.73999977,-63.29999924
-1425,-3876,2086,0,0,0,13.1499996185303,-30.73999977,-63.29999924
-1425,-3876,2086,0,0,0,13.1499996185303,-30.73999977,-63.29999924
-1425,-3876,2086,0,0,0,13.1499996185303,-30.73999977,-63.29999924
-1425,-3876,2086,0,0,0,13.1499996185303,-30.73999977,-63.29999924
-1425,-3876,2086,0,0,0,13.1499996185303,-30.73999977,-63.29999924
-1425,-3876,2086,0,0,0,13.1499996185303,-30.73999977,-63.29999924
-1425,-3876,2086,0,0,0,13.1499996185303,-30.73999977,-63.29999924
-962,-4396,3255,0,0,0,13.1499996185303,-30.73999977,-63.29999924
-962,-4396,3255,0,0,0,13.1499996185303,-30.73999977,-63.29999924
-962,-4396,3255,0,0,0,13.1499996185303,-30.73999977,-63.29999924
-962,-4396,3255,0,0,0,13.1499996185303,-30.73999977,-63.29999924
-962,-4396,3255,0,0,0,13.1499996185303,-30.73999977,-63.29999924
-962,-4396,3255,0,0,0,13.1499996185303,-30.73999977,-63.29999924
-829,-5176,4297,0,0,0,13.1499996185303,-30.73999977,-63.29999924
-829,-5176,4297,0,0,0,13.1499996185303,-30.73999977,-63.29999924
-829,-5176,4297,0,0,0,13.1499996185303,-30.73999977,-63.29999924
-829,-5176,4297,0,0,0,13.1499996185303,-30.73999977,-63.29999924
-829,-5176,4297,0,0,0,13.1499996185303,-30.73999977,-63.29999924
-829,-5176,4297,0,0,0,13.1499996185303,-30.73999977,-63.29999924
-829,-5176,4297,0,0,0,13.1499996185303,-30.73999977,-63.29999924
-1489,-5541,4433,0,0,0,13.1499996185303,-30.73999977,-63.29999924
-1489,-5541,4433,0,0,0,13.1499996185303,-30.73999977,-63.29999924
-1489,-5541,4433,0,0,0,13.1499996185303,-30.73999977,-63.29999924
-1489,-5541,4433,0,0,0,13.1499996185303,-30.73999977,-63.29999924
-1489,-5541,4433,0,0,0,13.1499996185303,-30.73999977,-63.29999924
-1489,-5541,4433,0,0,0,13.1499996185303,-30.73999977,-63.29999924
-1489,-5541,4433,0,0,0,13.1499996185303,-30.73999977,-63.29999924
-350,-4316,6735,0,0,0,13.1499996185303,-30.73999977,-63.29999924
-350,-4316,6735,0,0,0,13.1499996185303,-30.73999977,-63.29999924
-350,-4316,6735,0,0,0,13.1499996185303,-30.73999977,-63.29999924
-350,-4316,6735,0,0,0,13.1499996185303,-30.73999977,-63.29999924
-350,-4316,6735,0,0,0,13.1499996185303,-30.73999977,-63.29999924
-350,-4316,6735,0,0,0,13.1499996185303,-30.73999977,-63.29999924
-350,-4316,6735,0,0,0,13.1499996185303,-30.73999977,-63.29999924
-350,-4316,6735,0,0,0,12.5200004577637,-42.61999893,-62.68999863
-2515,-5576,2368,0,0,0,12.5200004577637,-42.61999893,-62.68999863
-2515,-5576,2368,0,0,0,12.5200004577637,-42.61999893,-62.68999863
-2515,-5576,2368,0,0,0,12.5200004577637,-42.61999893,-62.68999863
-2515,-5576,2368,0,0,0,12.5200004577637,-42.61999893,-62.68999863
-2515,-5576,2368,0,0,0,12.5200004577637,-42.61999893,-62.68999863
-2515,-5576,2368,0,0,0,12.5200004577637,-42.61999893,-62.68999863
-1098,-4878,4855,0,0,0,12.5200004577637,-42.61999893,-62.68999863
-1098,-4878,4855,0,0,0,12.5200004577637,-42.61999893,-62.68999863
-1098,-4878,4855,0,0,0,12.5200004577637,-42.61999893,-62.68999863
-1098,-4878,4855,0,0,0,12.5200004577637,-42.61999893,-62.68999863
-1098,-4878,4855,0,0,0,12.5200004577637,-42.61999893,-62.68999863
-1098,-4878,4855,0,0,0,12.5200004577637,-42.61999893,-62.68999863
-1098,-4878,4855,0,0,0,12.5200004577637,-42.61999893,-62.68999863
-772,-5160,4594,0,0,0,12.5200004577637,-42.61999893,-62.68999863
-772,-5160,4594,0,0,0,12.5200004577637,-42.61999893,-62.68999863
-772,-5160,4594,0,0,0,12.5200004577637,-42.61999893,-62.68999863
-772,-5160,4594,0,0,0,12.5200004577637,-42.61999893,-62.68999863
-772,-5160,4594,0,0,0,12.5200004577637,-42.61999893,-62.68999863
-772,-5160,4594,0,0,0,12.5200004577637,-42.61999893,-62.68999863
-772,-5160,4594,0,0,0,12.5200004577637,-42.61999893,-62.68999863
-377,-4678,4806,0,0,0,12.5200004577637,-42.61999893,-62.68999863
-377,-4678,4806,0,0,0,12.5200004577637,-42.61999893,-62.68999863
-377,-4678,4806,0,0,0,12.5200004577637,-42.61999893,-62.68999863
-377,-4678,4806,0,0,0,12.5200004577637,-42.61999893,-62.68999863
-377,-4678,4806,0,0,0,12.5200004577637,-42.61999893,-62.68999863
-377,-4678,4806,0,0,0,12.5200004577637,-42.61999893,-62.68999863
-377,-4678,4806,0,0,0,12.5200004577637,-42.61999893,-62.68999863
-220,-3793,5548,57,0,0,12.5200004577637,-42.61999893,-62.68999863
-220,-3793,5548,57,0,0,12.5200004577637,-42.61999893,-62.68999863
-220,-3793,5548,57,0,0,12.5200004577637,-42.61999893,-62.68999863
-220,-3793,5548,57,0,0,12.5200004577637,-42.61999893,-62.68999863
-220,-3793,5548,57,0,0,12.5200004577637,-42.61999893,-62.68999863
-220,-3793,5548,57,0,0,12.5200004577637,-42.61999893,-62.68999863
-220,-3793,5548,57,0,0,12.5200004577637,-42.61999893,-62.68999863
-456,-4215,5123,0,0,0,12.5200004577637,-42.61999893,-62.68999863
-456,-4215,5123,0,0,0,12.5200004577637,-42.61999893,-62.68999863
-456,-4215,5123,0,0,0,12.5200004577637,-42.61999893,-62.68999863
-456,-4215,5123,0,0,0,12.5200004577637,-42.61999893,-62.68999863
-456,-4215,5123,0,0,0,12.5200004577637,-42.61999893,-62.68999863
-456,-4215,5123,0,0,0,12.5200004577637,-42.61999893,-62.68999863
-288,-3736,5851,0,0,0,12.5200004577637,-42.61999893,-62.68999863
-288,-3736,5851,0,0,0,12.5200004577637,-42.61999893,-62.68999863
-288,-3736,5851,0,0,0,12.5200004577637,-42.61999893,-62.68999863
-288,-3736,5851,0,0,0,12.5200004577637,-42.61999893,-62.68999863
-288,-3736,5851,0,0,0,12.5200004577637,-42.61999893,-62.68999863
-288,-3736,5851,0,0,0,12.5200004577637,-42.61999893,-62.68999863
-288,-3736,5851,0,0,0,12.5200004577637,-42.61999893,-62.68999863
-288,-3736,5851,0,0,0,12.5200004577637,-42.61999893,-62.68999863
-718,-3693,5100,0,0,0,12.5200004577637,-42.61999893,-62.68999863
-718,-3693,5100,0,0,0,12.5200004577637,-42.61999893,-62.68999863
-718,-3693,5100,0,0,0,12.5200004577637,-42.61999893,-62.68999863
-718,-3693,5100,0,0,0,12.5200004577637,-42.61999893,-62.68999863
-718,-3693,5100,0,0,0,12.5200004577637,-42.61999893,-62.68999863
-718,-3693,5100,0,0,0,12.5200004577637,-42.61999893,-62.68999863
-461,-4079,4861,0,0,0,12.5200004577637,-42.61999893,-62.68999863
