ACC_X,ACC_Y,ACC_Z,GYR_X,GYR_Y,GYR_Z,Angle_ROL,Angle_PIT,Angle_YAW
-986,420,8063,0,0,0,5.650000095,4.670000076,-0.409999996
-961,515,8149,0,0,0,5.650000095,4.670000076,-0.409999996
-961,515,8149,0,0,0,5.650000095,4.670000076,-0.409999996
-961,515,8149,0,0,0,5.650000095,4.670000076,-0.409999996
-961,515,8149,0,0,0,5.650000095,4.670000076,-0.409999996
-961,515,8149,0,0,0,5.650000095,4.670000076,-0.409999996
-961,515,8149,0,0,0,5.650000095,4.670000076,-0.409999996
-961,515,8149,0,0,0,5.650000095,4.670000076,-0.409999996
-961,515,8149,0,0,0,5.650000095,4.670000076,-0.409999996
-961,515,8149,0,0,0,15.73999977,0.699999988,0.180000007
-961,515,8149,0,0,0,15.73999977,0.699999988,0.180000007
-1121,474,8233,0,57,0,15.73999977,0.699999988,0.180000007
-1121,474,8233,0,57,0,15.73999977,0.699999988,0.180000007
-1121,474,8233,0,57,0,15.73999977,0.699999988,0.180000007
-1121,474,8233,0,57,0,15.73999977,0.699999988,0.180000007
-1121,474,8233,0,57,0,15.73999977,0.699999988,0.180000007
-1619,474,7921,0,57,0,15.73999977,0.699999988,0.180000007
-1619,474,7921,0,57,0,15.73999977,0.699999988,0.180000007
-1619,474,7921,0,57,0,15.73999977,0.699999988,0.180000007
-1619,474,7921,0,57,0,15.73999977,0.699999988,0.180000007
-1619,474,7921,0,57,0,15.73999977,0.699999988,0.180000007
-1619,474,7921,0,57,0,15.73999977,0.699999988,0.180000007
-1619,474,7921,0,57,0,15.73999977,0.699999988,0.180000007
-2445,425,7492,0,0,0,15.73999977,0.699999988,0.180000007
-2445,425,7492,0,0,0,15.73999977,0.699999988,0.180000007
-2445,425,7492,0,0,0,15.73999977,0.699999988,0.180000007
-2445,425,7492,0,0,0,15.73999977,0.699999988,0.180000007
-2445,425,7492,0,0,0,15.73999977,0.699999988,0.180000007
-2445,425,7492,0,0,0,15.73999977,0.699999988,0.180000007
-2445,425,7492,0,0,0,15.73999977,0.699999988,0.180000007
-2445,425,7492,0,0,0,15.73999977,0.699999988,0.180000007
-2647,420,7458,0,0,0,15.73999977,0.699999988,0.180000007
-2647,420,7458,0,0,0,15.73999977,0.699999988,0.180000007
-2647,420,7458,0,0,0,15.73999977,0.699999988,0.180000007
-2647,420,7458,0,0,0,15.73999977,0.699999988,0.180000007
-2647,420,7458,0,0,0,15.73999977,0.699999988,0.180000007
-2647,420,7458,0,0,0,15.73999977,0.699999988,0.180000007
-2647,420,7458,0,0,0,15.73999977,0.699999988,0.180000007
-2902,404,7317,0,0,0,15.73999977,0.699999988,0.180000007
-2902,404,7317,0,0,0,15.73999977,0.699999988,0.180000007
-2902,404,7317,0,0,0,15.73999977,0.699999988,0.180000007
-2902,404,7317,0,0,0,15.73999977,0.699999988,0.180000007
-2902,404,7317,0,0,0,15.73999977,0.699999988,0.180000007
-2902,404,7317,0,0,0,15.73999977,0.699999988,0.180000007
-2902,404,7317,0,0,0,15.73999977,0.699999988,0.180000007
-2902,404,7317,0,0,0,15.73999977,0.699999988,0.180000007
-3529,357,7042,0,0,0,15.73999977,0.699999988,0.180000007
-3529,357,7042,0,0,0,15.73999977,0.699999988,0.180000007
-3529,357,7042,0,0,0,15.73999977,0.699999988,0.180000007
-3529,357,7042,0,0,0,15.73999977,0.699999988,0.180000007
-3529,357,7042,0,0,0,15.73999977,0.699999988,0.180000007
-3529,357,7042,0,0,0,15.73999977,0.699999988,0.180000007
-3529,357,7042,0,0,0,15.73999977,0.699999988,0.180000007
-4381,272,6698,0,0,0,15.73999977,0.699999988,0.180000007
-4381,272,6698,0,0,0,15.73999977,0.699999988,0.180000007
-4381,272,6698,0,0,0,15.73999977,0.699999988,0.180000007
-4381,272,6698,0,0,0,15.73999977,0.699999988,0.180000007
-4381,272,6698,0,0,0,15.73999977,0.699999988,0.180000007
-4381,272,6698,0,0,0,15.73999977,0.699999988,0.180000007
-4381,272,6698,0,0,0,15.73999977,0.699999988,0.180000007
-4373,292,6696,0,0,0,15.73999977,0.699999988,0.180000007
-4373,292,6696,0,0,0,15.73999977,0.699999988,0.180000007
-4373,292,6696,0,0,0,15.73999977,0.699999988,0.180000007
-4373,292,6696,0,0,0,15.73999977,0.699999988,0.180000007
-4373,292,6696,0,0,0,15.73999977,0.699999988,0.180000007
-4373,292,6696,0,0,0,15.73999977,0.699999988,0.180000007
-4373,292,6696,0,0,0,15.73999977,0.699999988,0.180000007
-4373,292,6696,0,0,0,15.73999977,0.699999988,0.180000007
-4303,306,6733,0,-57,0,15.73999977,0.699999988,0.180000007
-4303,306,6733,0,-57,0,15.73999977,0.699999988,0.180000007
-4303,306,6733,0,-57,0,15.73999977,0.699999988,0.180000007
-4303,306,6733,0,-57,0,15.73999977,0.699999988,0.180000007
-4303,306,6733,0,-57,0,15.73999977,0.699999988,0.180000007
-4303,306,6733,0,-57,0,15.73999977,0.699999988,0.180000007
-4303,306,6733,0,-57,0,15.73999977,0.699999988,0.180000007
-4013,243,6900,0,-57,0,15.73999977,0.699999988,0.180000007
-4013,243,6900,0,-57,0,15.73999977,0.699999988,0.180000007
-4013,243,6900,0,-57,0,15.73999977,0.699999988,0.180000007
-4013,243,6900,0,-57,0,15.73999977,0.699999988,0.180000007
-4013,243,6900,0,-57,0,15.73999977,0.699999988,0.180000007
-4013,243,6900,0,-57,0,15.73999977,0.699999988,0.180000007
-4013,243,6900,0,-57,0,15.73999977,0.699999988,0.180000007
-4013,243,6900,0,-57,0,15.73999977,0.699999988,0.180000007
-3873,236,6918,0,-57,0,15.73999977,0.699999988,0.180000007
-3873,236,6918,0,-57,0,15.73999977,0.699999988,0.180000007
-3873,236,6918,0,-57,0,15.73999977,0.699999988,0.180000007
-3873,236,6918,0,-57,0,15.73999977,0.699999988,0.180000007
-3873,236,6918,0,-57,0,15.73999977,0.699999988,0.180000007
-3873,236,6918,0,-57,0,15.73999977,0.699999988,0.180000007
-3873,236,6918,0,-57,0,15.73999977,0.699999988,0.180000007
-3873,236,6918,0,-57,0,10.43999958,0.870000005,-4.320000172
-3873,236,6918,0,-57,0,10.43999958,0.870000005,-4.320000172
-3041,300,7314,0,-57,0,10.43999958,0.870000005,-4.320000172
-3041,300,7314,0,-57,0,10.43999958,0.870000005,-4.320000172
-3041,300,7314,0,-57,0,10.43999958,0.870000005,-4.320000172
-3041,300,7314,0,-57,0,10.43999958,0.870000005,-4.320000172
-3041,300,7314,0,-57,0,10.43999958,0.870000005,-4.320000172
-3041,300,7314,0,-57,0,10.43999958,0.870000005,-4.320000172
-2384,365,7565,0,0,0,10.43999958,0.870000005,-4.320000172
-2384,365,7565,0,0,0,10.43999958,0.870000005,-4.320000172
-2384,365,7565,0,0,0,10.43999958,0.870000005,-4.320000172
-2384,365,7565,0,0,0,10.43999958,0.870000005,-4.320000172
-2384,365,7565,0,0,0,10.43999958,0.870000005,-4.320000172
-2384,365,7565,0,0,0,10.43999958,0.870000005,-4.320000172
-2384,365,7565,0,0,0,10.43999958,0.870000005,-4.320000172
-2384,365,7565,0,0,0,10.43999958,0.870000005,-4.320000172
-2122,435,7640,0,0,0,10.43999958,0.870000005,-4.320000172
-2122,435,7640,0,0,0,10.43999958,0.870000005,-4.320000172
-2122,435,7640,0,0,0,10.43999958,0.870000005,-4.320000172
-2122,435,7640,0,0,0,10.43999958,0.870000005,-4.320000172
-2122,435,7640,0,0,0,10.43999958,0.870000005,-4.320000172
-2122,435,7640,0,0,0,10.43999958,0.870000005,-4.320000172
-2122,435,7640,0,0,0,10.43999958,0.870000005,-4.320000172
-2065,480,7641,0,0,0,10.43999958,0.870000005,-4.320000172
-2065,480,7641,0,0,0,10.43999958,0.870000005,-4.320000172
-2065,480,7641,0,0,0,10.43999958,0.870000005,-4.320000172
-2065,480,7641,0,0,0,10.43999958,0.870000005,-4.320000172
-2065,480,7641,0,0,0,10.43999958,0.870000005,-4.320000172
-2065,480,7641,0,0,0,10.43999958,0.870000005,-4.320000172
-2065,480,7641,0,0,0,10.43999958,0.870000005,-4.320000172
-1169,726,7974,0,0,0,10.43999958,0.870000005,-4.320000172
-1169,726,7974,0,0,0,10.43999958,0.870000005,-4.320000172
-1169,726,7974,0,0,0,10.43999958,0.870000005,-4.320000172
-1169,726,7974,0,0,0,10.43999958,0.870000005,-4.320000172
-1169,726,7974,0,0,0,10.43999958,0.870000005,-4.320000172
-1169,726,7974,0,0,0,10.43999958,0.870000005,-4.320000172
-1169,726,7974,0,0,0,10.43999958,0.870000005,-4.320000172
-1169,726,7974,0,0,0,10.43999958,0.870000005,-4.320000172
-870,1074,8043,0,0,0,10.43999958,0.870000005,-4.320000172
-870,1074,8043,0,0,0,10.43999958,0.870000005,-4.320000172
-870,1074,8043,0,0,0,10.43999958,0.870000005,-4.320000172
-870,1074,8043,0,0,0,10.43999958,0.870000005,-4.320000172
-870,1074,8043,0,0,0,10.43999958,0.870000005,-4.320000172
-870,1074,8043,0,0,0,10.43999958,0.870000005,-4.320000172
-870,1074,8043,0,0,0,10.43999958,0.870000005,-4.320000172
-870,1074,8043,0,0,0,10.43999958,0.870000005,-4.320000172
-1013,1203,7960,0,0,0,10.43999958,0.870000005,-4.320000172
-1013,1203,7960,0,0,0,10.43999958,0.870000005,-4.320000172
-1013,1203,7960,0,0,0,10.43999958,0.870000005,-4.320000172
-1013,1203,7960,0,0,0,10.43999958,0.870000005,-4.320000172
-1013,1203,7960,0,0,0,10.43999958,0.870000005,-4.320000172
-1013,1203,7960,0,0,0,10.43999958,0.870000005,-4.320000172
-1013,1203,7960,0,0,0,10.43999958,0.870000005,-4.320000172
-1166,1272,7829,0,0,0,10.43999958,0.870000005,-4.320000172
-1166,1272,7829,0,0,0,10.43999958,0.870000005,-4.320000172
-1166,1272,7829,0,0,0,10.43999958,0.870000005,-4.320000172
-1166,1272,7829,0,0,0,10.43999958,0.870000005,-4.320000172
-1166,1272,7829,0,0,0,10.43999958,0.870000005,-4.320000172
-1166,1272,7829,0,0,0,10.43999958,0.870000005,-4.320000172
-1166,1272,7829,0,0,0,10.43999958,0.870000005,-4.320000172
-1166,1272,7829,0,0,0,10.43999958,0.870000005,-4.320000172
-672,1751,7959,0,0,0,10.43999958,0.870000005,-4.320000172
-672,1751,7959,0,0,0,10.43999958,0.870000005,-4.320000172
-672,1751,7959,0,0,0,10.43999958,0.870000005,-4.320000172
-672,1751,7959,0,0,0,10.43999958,0.870000005,-4.320000172
-672,1751,7959,0,0,0,10.43999958,0.870000005,-4.320000172
-672,1751,7959,0,0,0,10.43999958,0.870000005,-4.320000172
-672,1751,7959,0,0,0,10.43999958,0.870000005,-4.320000172
-681,1893,8005,-57,0,0,10.43999958,0.870000005,-4.320000172
-681,1893,8005,-57,0,0,10.43999958,0.870000005,-4.320000172
-681,1893,8005,-57,0,0,10.43999958,0.870000005,-4.320000172
-681,1893,8005,-57,0,0,10.43999958,0.870000005,-4.320000172
-681,1893,8005,-57,0,0,10.43999958,0.870000005,-4.320000172
-681,1893,8005,-57,0,0,10.43999958,0.870000005,-4.320000172
-681,1893,8005,-57,0,0,10.43999958,0.870000005,-4.320000172
-681,1893,8005,-57,0,0,10.43999958,0.870000005,-4.320000172
-839,1674,7924,-57,0,0,10.43999958,0.870000005,-4.320000172
-839,1674,7924,-57,0,0,10.43999958,0.870000005,-4.320000172
-839,1674,7924,-57,0,0,10.43999958,0.870000005,-4.320000172
-839,1674,7924,-57,0,0,10.43999958,0.870000005,-4.320000172
-839,1674,7924,-57,0,0,10.43999958,0.870000005,-4.320000172
-839,1674,7924,-57,0,0,10.43999958,0.870000005,-4.320000172
-839,1674,7924,-57,0,0,10.43999958,0.870000005,-4.320000172
-839,1674,7924,-57,0,0,8.550000191,2.710000038,-8.710000038
-869,1129,7910,-57,0,0,8.550000191,2.710000038,-8.710000038
-869,1129,7910,-57,0,0,8.550000191,2.710000038,-8.710000038
-869,1129,7910,-57,0,0,8.550000191,2.710000038,-8.710000038
-869,1129,7910,-57,0,0,8.550000191,2.710000038,-8.710000038
-869,1129,7910,-57,0,0,8.550000191,2.710000038,-8.710000038
-869,1129,7910,-57,0,0,8.550000191,2.710000038,-8.710000038
-671,1086,8083,-57,0,0,8.550000191,2.710000038,-8.710000038
-671,1086,8083,-57,0,0,8.550000191,2.710000038,-8.710000038
-671,1086,8083,-57,0,0,8.550000191,2.710000038,-8.710000038
-671,1086,8083,-57,0,0,8.550000191,2.710000038,-8.710000038
-671,1086,8083,-57,0,0,8.550000191,2.710000038,-8.710000038
-671,1086,8083,-57,0,0,8.550000191,2.710000038,-8.710000038
-671,1086,8083,-57,0,0,8.550000191,2.710000038,-8.710000038
-671,1086,8083,-57,0,0,8.550000191,2.710000038,-8.710000038
-780,793,8088,0,0,0,8.550000191,2.710000038,-8.710000038
-780,793,8088,0,0,0,8.550000191,2.710000038,-8.710000038
-780,793,8088,0,0,0,8.550000191,2.710000038,-8.710000038
-780,793,8088,0,0,0,8.550000191,2.710000038,-8.710000038
-780,793,8088,0,0,0,8.550000191,2.710000038,-8.710000038
-780,793,8088,0,0,0,8.550000191,2.710000038,-8.710000038
-780,793,8088,0,0,0,8.550000191,2.710000038,-8.710000038
-1073,229,8039,0,0,0,8.550000191,2.710000038,-8.710000038
-1073,229,8039,0,0,0,8.550000191,2.710000038,-8.710000038
-1073,229,8039,0,0,0,8.550000191,2.710000038,-8.710000038
-1073,229,8039,0,0,0,8.550000191,2.710000038,-8.710000038
-1073,229,8039,0,0,0,8.550000191,2.710000038,-8.710000038
-1073,229,8039,0,0,0,8.550000191,2.710000038,-8.710000038
-1073,229,8039,0,0,0,8.550000191,2.710000038,-8.710000038
-1365,-541,7867,0,0,0,8.550000191,2.710000038,-8.710000038
-1365,-541,7867,0,0,0,8.550000191,2.710000038,-8.710000038
-1365,-541,7867,0,0,0,8.550000191,2.710000038,-8.710000038
-1365,-541,7867,0,0,0,8.550000191,2.710000038,-8.710000038
-1365,-541,7867,0,0,0,8.550000191,2.710000038,-8.710000038
-1365,-541,7867,0,0,0,8.550000191,2.710000038,-8.710000038
-1365,-541,7867,0,0,0,8.550000191,2.710000038,-8.710000038
-1365,-541,7867,0,0,0,8.550000191,2.710000038,-8.710000038
-1391,-641,7858,-57,0,0,8.550000191,2.710000038,-8.710000038
-1391,-641,7858,-57,0,0,8.550000191,2.710000038,-8.710000038
-1391,-641,7858,-57,0,0,8.550000191,2.710000038,-8.710000038
-1391,-641,7858,-57,0,0,8.550000191,2.710000038,-8.710000038
-1391,-641,7858,-57,0,0,8.550000191,2.710000038,-8.710000038
-1391,-641,7858,-57,0,0,8.550000191,2.710000038,-8.710000038
-1391,-641,7858,-57,0,0,8.550000191,2.710000038,-8.710000038
-1458,-852,7774,0,0,0,8.550000191,2.710000038,-8.710000038
-1458,-852,7774,0,0,0,8.550000191,2.710000038,-8.710000038
-1458,-852,7774,0,0,0,8.550000191,2.710000038,-8.710000038
-1458,-852,7774,0,0,0,8.550000191,2.710000038,-8.710000038
-1458,-852,7774,0,0,0,8.550000191,2.710000038,-8.710000038
-1458,-852,7774,0,0,0,8.550000191,2.710000038,-8.710000038
-1458,-852,7774,0,0,0,8.550000191,2.710000038,-8.710000038
-1650,-1237,7651,0,0,0,8.550000191,2.710000038,-8.710000038
-1650,-1237,7651,0,0,0,8.550000191,2.710000038,-8.710000038
-1650,-1237,7651,0,0,0,8.550000191,2.710000038,-8.710000038
-1650,-1237,7651,0,0,0,8.550000191,2.710000038,-8.710000038
-1650,-1237,7651,0,0,0,8.550000191,2.710000038,-8.710000038
-1650,-1237,7651,0,0,0,8.550000191,2.710000038,-8.710000038
-1650,-1237,7651,0,0,0,8.550000191,2.710000038,-8.710000038
-1920,-1863,7506,0,0,0,8.550000191,2.710000038,-8.710000038
-1920,-1863,7506,0,0,0,8.550000191,2.710000038,-8.710000038
-1920,-1863,7506,0,0,0,8.550000191,2.710000038,-8.710000038
-1920,-1863,7506,0,0,0,8.550000191,2.710000038,-8.710000038
-1920,-1863,7506,0,0,0,8.550000191,2.710000038,-8.710000038
-1920,-1863,7506,0,0,0,8.550000191,2.710000038,-8.710000038
-1920,-1863,7506,0,0,0,8.550000191,2.710000038,-8.710000038
-1920,-1863,7506,0,0,0,8.550000191,2.710000038,-8.710000038
-1987,-1861,7479,57,0,0,8.550000191,2.710000038,-8.710000038
-1987,-1861,7479,57,0,0,8.550000191,2.710000038,-8.710000038
-1987,-1861,7479,57,0,0,8.550000191,2.710000038,-8.710000038
-1987,-1861,7479,57,0,0,8.550000191,2.710000038,-8.710000038
-1987,-1861,7479,57,0,0,8.550000191,2.710000038,-8.710000038
-1987,-1861,7479,57,0,0,8.550000191,2.710000038,-8.710000038
-1987,-1861,7479,57,0,0,8.550000191,2.710000038,-8.710000038
-1987,-1861,7479,57,0,0,8.550000191,2.710000038,-8.710000038
-2109,-1727,7513,114,0,0,8.550000191,2.710000038,-8.710000038
-2109,-1727,7513,114,0,0,8.550000191,2.710000038,-8.710000038
-2109,-1727,7513,114,0,0,8.550000191,2.710000038,-8.710000038
-2109,-1727,7513,114,0,0,8.550000191,2.710000038,-8.710000038
-2109,-1727,7513,114,0,0,8.550000191,2.710000038,-8.710000038
-2109,-1727,7513,114,0,0,8.550000191,2.710000038,-8.710000038
-2109,-1727,7513,114,0,0,8.550000191,2.710000038,-8.710000038
-2109,-1727,7513,114,0,0,15.47000027,0.439999998,-6.119999886
-2189,-1388,7603,57,0,0,15.47000027,0.439999998,-6.119999886
-2189,-1388,7603,57,0,0,15.47000027,0.439999998,-6.119999886
-2189,-1388,7603,57,0,0,15.47000027,0.439999998,-6.119999886
-2189,-1388,7603,57,0,0,15.47000027,0.439999998,-6.119999886
-2189,-1388,7603,57,0,0,15.47000027,0.439999998,-6.119999886
-2189,-1388,7603,57,0,0,15.47000027,0.439999998,-6.119999886
-2199,-1276,7615,57,0,0,15.47000027,0.439999998,-6.119999886
-2199,-1276,7615,57,0,0,15.47000027,0.439999998,-6.119999886
-2199,-1276,7615,57,0,0,15.47000027,0.439999998,-6.119999886
-2199,-1276,7615,57,0,0,15.47000027,0.439999998,-6.119999886
-2199,-1276,7615,57,0,0,15.47000027,0.439999998,-6.119999886
-2199,-1276,7615,57,0,0,15.47000027,0.439999998,-6.119999886
-2199,-1276,7615,57,0,0,15.47000027,0.439999998,-6.119999886
-2199,-1276,7615,57,0,0,15.47000027,0.439999998,-6.119999886
-2008,-463,7761,57,0,0,15.47000027,0.439999998,-6.119999886
-2008,-463,7761,57,0,0,15.47000027,0.439999998,-6.119999886
-2008,-463,7761,57,0,0,15.47000027,0.439999998,-6.119999886
-2008,-463,7761,57,0,0,15.47000027,0.439999998,-6.119999886
-2008,-463,7761,57,0,0,15.47000027,0.439999998,-6.119999886
-2008,-463,7761,57,0,0,15.47000027,0.439999998,-6.119999886
-2008,-463,7761,57,0,0,15.47000027,0.439999998,-6.119999886
-2008,-463,7761,57,0,0,15.47000027,0.439999998,-6.119999886
-1910,395,7774,57,0,0,15.47000027,0.439999998,-6.119999886
-1910,395,7774,57,0,0,15.47000027,0.439999998,-6.119999886
-1910,395,7774,57,0,0,15.47000027,0.439999998,-6.119999886
-1910,395,7774,57,0,0,15.47000027,0.439999998,-6.119999886
-1910,395,7774,57,0,0,15.47000027,0.439999998,-6.119999886
-1910,395,7774,57,0,0,15.47000027,0.439999998,-6.119999886
-1910,395,7774,57,0,0,15.47000027,0.439999998,-6.119999886
-2002,653,7682,0,0,0,15.47000027,0.439999998,-6.119999886
-2002,653,7682,0,0,0,15.47000027,0.439999998,-6.119999886
-2002,653,7682,0,0,0,15.47000027,0.439999998,-6.119999886
-2002,653,7682,0,0,0,15.47000027,0.439999998,-6.119999886
-2002,653,7682,0,0,0,15.47000027,0.439999998,-6.119999886
-2002,653,7682,0,0,0,15.47000027,0.439999998,-6.119999886
-2002,653,7682,0,0,0,15.47000027,0.439999998,-6.119999886
-2082,725,7395,0,0,0,15.47000027,0.439999998,-6.119999886
-2082,725,7395,0,0,0,15.47000027,0.439999998,-6.119999886
-2082,725,7395,0,0,0,15.47000027,0.439999998,-6.119999886
-2082,725,7395,0,0,0,15.47000027,0.439999998,-6.119999886
-2082,725,7395,0,0,0,15.47000027,0.439999998,-6.119999886
-2082,725,7395,0,0,0,15.47000027,0.439999998,-6.119999886
-2082,725,7395,0,0,0,15.47000027,0.439999998,-6.119999886
-2082,725,7395,0,0,0,15.47000027,0.439999998,-6.119999886
-1954,1843,7366,0,0,0,15.47000027,0.439999998,-6.119999886
-1954,1843,7366,0,0,0,15.47000027,0.439999998,-6.119999886
-1954,1843,7366,0,0,0,15.47000027,0.439999998,-6.119999886
-1954,1843,7366,0,0,0,15.47000027,0.439999998,-6.119999886
-1954,1843,7366,0,0,0,15.47000027,0.439999998,-6.119999886
-1954,1843,7366,0,0,0,15.47000027,0.439999998,-6.119999886
-1954,1843,7366,0,0,0,15.47000027,0.439999998,-6.119999886
-1954,1843,7366,0,0,0,15.47000027,0.439999998,-6.119999886
-1949,2105,7361,-57,0,0,15.47000027,0.439999998,-6.119999886
-1949,2105,7361,-57,0,0,15.47000027,0.439999998,-6.119999886
-1949,2105,7361,-57,0,0,15.47000027,0.439999998,-6.119999886
-1949,2105,7361,-57,0,0,15.47000027,0.439999998,-6.119999886
-1949,2105,7361,-57,0,0,15.47000027,0.439999998,-6.119999886
-1949,2105,7361,-57,0,0,15.47000027,0.439999998,-6.119999886
-1949,2105,7361,-57,0,0,15.47000027,0.439999998,-6.119999886
-2035,1947,7254,-114,-57,-57,15.47000027,0.439999998,-6.119999886
-2035,1947,7254,-114,-57,-57,15.47000027,0.439999998,-6.119999886
-2035,1947,7254,-114,-57,-57,15.47000027,0.439999998,-6.119999886
-2035,1947,7254,-114,-57,-57,15.47000027,0.439999998,-6.119999886
-2035,1947,7254,-114,-57,-57,15.47000027,0.439999998,-6.119999886
-2035,1947,7254,-114,-57,-57,15.47000027,0.439999998,-6.119999886
-2035,1947,7254,-114,-57,-57,15.47000027,0.439999998,-6.119999886
-1833,1215,7407,0,0,0,15.47000027,0.439999998,-6.119999886
-1833,1215,7407,0,0,0,15.47000027,0.439999998,-6.119999886
-1833,1215,7407,0,0,0,15.47000027,0.439999998,-6.119999886
-1833,1215,7407,0,0,0,15.47000027,0.439999998,-6.119999886
-1833,1215,7407,0,0,0,15.47000027,0.439999998,-6.119999886
-1833,1215,7407,0,0,0,15.47000027,0.439999998,-6.119999886
-1833,1215,7407,0,0,0,15.47000027,0.439999998,-6.119999886
-1833,1215,7407,0,0,0,15.47000027,0.439999998,-6.119999886
-1868,1236,7491,-114,0,0,15.47000027,0.439999998,-6.119999886
-1868,1236,7491,-114,0,0,15.47000027,0.439999998,-6.119999886
-1868,1236,7491,-114,0,0,15.47000027,0.439999998,-6.119999886
-1868,1236,7491,-114,0,0,15.47000027,0.439999998,-6.119999886
-1868,1236,7491,-114,0,0,15.47000027,0.439999998,-6.119999886
-1868,1236,7491,-114,0,0,15.47000027,0.439999998,-6.119999886
-1868,1236,7491,-114,0,0,15.47000027,0.439999998,-6.119999886
-1868,1236,7491,-114,0,0,13.25,-7.860000134,-13.17000008
-1777,596,7627,-114,0,0,13.25,-7.860000134,-13.17000008
-1777,596,7627,-114,0,0,13.25,-7.860000134,-13.17000008
-1777,596,7627,-114,0,0,13.25,-7.860000134,-13.17000008
-1777,596,7627,-114,0,0,13.25,-7.860000134,-13.17000008
-1777,596,7627,-114,0,0,13.25,-7.860000134,-13.17000008
-1777,596,7627,-114,0,0,13.25,-7.860000134,-13.17000008
-1818,-286,7576,-57,0,0,13.25,-7.860000134,-13.17000008
-1818,-286,7576,-57,0,0,13.25,-7.860000134,-13.17000008
-1818,-286,7576,-57,0,0,13.25,-7.860000134,-13.17000008
-1818,-286,7576,-57,0,0,13.25,-7.860000134,-13.17000008
-1818,-286,7576,-57,0,0,13.25,-7.860000134,-13.17000008
-1818,-286,7576,-57,0,0,13.25,-7.860000134,-13.17000008
-1818,-286,7576,-57,0,0,13.25,-7.860000134,-13.17000008
-1818,-286,7576,-57,0,0,13.25,-7.860000134,-13.17000008
-2055,-1744,7237,-57,0,0,13.25,-7.860000134,-13.17000008
-2055,-1744,7237,-57,0,0,13.25,-7.860000134,-13.17000008
-2055,-1744,7237,-57,0,0,13.25,-7.860000134,-13.17000008
-2055,-1744,7237,-57,0,0,13.25,-7.860000134,-13.17000008
-2055,-1744,7237,-57,0,0,13.25,-7.860000134,-13.17000008
-2055,-1744,7237,-57,0,0,13.25,-7.860000134,-13.17000008
-2055,-1744,7237,-57,0,0,13.25,-7.860000134,-13.17000008
-1843,-2056,7281,0,0,0,13.25,-7.860000134,-13.17000008
-1843,-2056,7281,0,0,0,13.25,-7.860000134,-13.17000008
-1843,-2056,7281,0,0,0,13.25,-7.860000134,-13.17000008
-1843,-2056,7281,0,0,0,13.25,-7.860000134,-13.17000008
-1843,-2056,7281,0,0,0,13.25,-7.860000134,-13.17000008
-1843,-2056,7281,0,0,0,13.25,-7.860000134,-13.17000008
-1843,-2056,7281,0,0,0,13.25,-7.860000134,-13.17000008
-1843,-2056,7281,0,0,0,13.25,-7.860000134,-13.17000008
-1826,-2399,7084,-57,0,0,13.25,-7.860000134,-13.17000008
-1826,-2399,7084,-57,0,0,13.25,-7.860000134,-13.17000008
-1826,-2399,7084,-57,0,0,13.25,-7.860000134,-13.17000008
-1826,-2399,7084,-57,0,0,13.25,-7.860000134,-13.17000008
-1826,-2399,7084,-57,0,0,13.25,-7.860000134,-13.17000008
-1826,-2399,7084,-57,0,0,13.25,-7.860000134,-13.17000008
-1826,-2399,7084,-57,0,0,13.25,-7.860000134,-13.17000008
-1759,-3085,6819,0,0,0,13.25,-7.860000134,-13.17000008
-1759,-3085,6819,0,0,0,13.25,-7.860000134,-13.17000008
-1759,-3085,6819,0,0,0,13.25,-7.860000134,-13.17000008
-1759,-3085,6819,0,0,0,13.25,-7.860000134,-13.17000008
-1759,-3085,6819,0,0,0,13.25,-7.860000134,-13.17000008
-1759,-3085,6819,0,0,0,13.25,-7.860000134,-13.17000008
-1759,-3085,6819,0,0,0,13.25,-7.860000134,-13.17000008
-1903,-4101,6303,0,0,0,13.25,-7.860000134,-13.17000008
-1903,-4101,6303,0,0,0,13.25,-7.860000134,-13.17000008
-1903,-4101,6303,0,0,0,13.25,-7.860000134,-13.17000008
-1903,-4101,6303,0,0,0,13.25,-7.860000134,-13.17000008
-1903,-4101,6303,0,0,0,13.25,-7.860000134,-13.17000008
-1903,-4101,6303,0,0,0,13.25,-7.860000134,-13.17000008
-1903,-4101,6303,0,0,0,13.25,-7.860000134,-13.17000008
-1903,-4101,6303,0,0,0,13.25,-7.860000134,-13.17000008
-1631,-4295,6461,0,0,0,13.25,-7.860000134,-13.17000008
-1631,-4295,6461,0,0,0,13.25,-7.860000134,-13.17000008
-1631,-4295,6461,0,0,0,13.25,-7.860000134,-13.17000008
-1631,-4295,6461,0,0,0,13.25,-7.860000134,-13.17000008
-1631,-4295,6461,0,0,0,13.25,-7.860000134,-13.17000008
-1631,-4295,6461,0,0,0,13.25,-7.860000134,-13.17000008
-1631,-4295,6461,0,0,0,13.25,-7.860000134,-13.17000008
-1509,-4519,6582,57,0,0,13.25,-7.860000134,-13.17000008
-1509,-4519,6582,57,0,0,13.25,-7.860000134,-13.17000008
-1509,-4519,6582,57,0,0,13.25,-7.860000134,-13.17000008
-1509,-4519,6582,57,0,0,13.25,-7.860000134,-13.17000008
-1509,-4519,6582,57,0,0,13.25,-7.860000134,-13.17000008
-1509,-4519,6582,57,0,0,13.25,-7.860000134,-13.17000008
-1509,-4519,6582,57,0,0,13.25,-7.860000134,-13.17000008
-1389,-4616,6781,171,0,0,13.25,-7.860000134,-13.17000008
-1389,-4616,6781,171,0,0,13.25,-7.860000134,-13.17000008
-1389,-4616,6781,171,0,0,13.25,-7.860000134,-13.17000008
-1389,-4616,6781,171,0,0,13.25,-7.860000134,-13.17000008
-1389,-4616,6781,171,0,0,13.25,-7.860000134,-13.17000008
-1389,-4616,6781,171,0,0,13.25,-7.860000134,-13.17000008
-1389,-4616,6781,171,0,0,13.25,-7.860000134,-13.17000008
-1389,-4616,6781,171,0,0,13.25,-7.860000134,-13.17000008
-1625,-4439,6689,171,0,0,13.25,-7.860000134,-13.17000008
-1625,-4439,6689,171,0,0,13.25,-7.860000134,-13.17000008
-1625,-4439,6689,171,0,0,13.25,-7.860000134,-13.17000008
-1625,-4439,6689,171,0,0,13.25,-7.860000134,-13.17000008
-1625,-4439,6689,171,0,0,13.25,-7.860000134,-13.17000008
-1625,-4439,6689,171,0,0,13.25,-7.860000134,-13.17000008
-1625,-4439,6689,171,0,0,13.25,-7.860000134,-13.17000008
-1625,-4439,6689,171,0,0,11.10999966,-2.910000086,-13.26000023
-1625,-4439,6689,171,0,0,11.10999966,-2.910000086,-13.26000023
-1518,-3182,7075,114,0,0,11.10999966,-2.910000086,-13.26000023
-1518,-3182,7075,114,0,0,11.10999966,-2.910000086,-13.26000023
-1518,-3182,7075,114,0,0,11.10999966,-2.910000086,-13.26000023
-1518,-3182,7075,114,0,0,11.10999966,-2.910000086,-13.26000023
-1518,-3182,7075,114,0,0,11.10999966,-2.910000086,-13.26000023
-1518,-3182,7075,114,0,0,11.10999966,-2.910000086,-13.26000023
-1583,-2249,7182,114,0,0,11.10999966,-2.910000086,-13.26000023
-1583,-2249,7182,114,0,0,11.10999966,-2.910000086,-13.26000023
-1583,-2249,7182,114,0,0,11.10999966,-2.910000086,-13.26000023
-1583,-2249,7182,114,0,0,11.10999966,-2.910000086,-13.26000023
-1583,-2249,7182,114,0,0,11.10999966,-2.910000086,-13.26000023
-1583,-2249,7182,114,0,0,11.10999966,-2.910000086,-13.26000023
-1583,-2249,7182,114,0,0,11.10999966,-2.910000086,-13.26000023
-1646,-1521,7094,57,0,0,11.10999966,-2.910000086,-13.26000023
-1646,-1521,7094,57,0,0,11.10999966,-2.910000086,-13.26000023
-1646,-1521,7094,57,0,0,11.10999966,-2.910000086,-13.26000023
-1646,-1521,7094,57,0,0,11.10999966,-2.910000086,-13.26000023
-1646,-1521,7094,57,0,0,11.10999966,-2.910000086,-13.26000023
-1646,-1521,7094,57,0,0,11.10999966,-2.910000086,-13.26000023
-1646,-1521,7094,57,0,0,11.10999966,-2.910000086,-13.26000023
-1646,-1521,7094,57,0,0,11.10999966,-2.910000086,-13.26000023
-1873,-1384,6897,0,0,0,11.10999966,-2.910000086,-13.26000023
-1873,-1384,6897,0,0,0,11.10999966,-2.910000086,-13.26000023
-1873,-1384,6897,0,0,0,11.10999966,-2.910000086,-13.26000023
-1873,-1384,6897,0,0,0,11.10999966,-2.910000086,-13.26000023
-1873,-1384,6897,0,0,0,11.10999966,-2.910000086,-13.26000023
-1873,-1384,6897,0,0,0,11.10999966,-2.910000086,-13.26000023
-1873,-1384,6897,0,0,0,11.10999966,-2.910000086,-13.26000023
-1785,432,7183,0,0,0,11.10999966,-2.910000086,-13.26000023
-1785,432,7183,0,0,0,11.10999966,-2.910000086,-13.26000023
-1785,432,7183,0,0,0,11.10999966,-2.910000086,-13.26000023
-1785,432,7183,0,0,0,11.10999966,-2.910000086,-13.26000023
-1785,432,7183,0,0,0,11.10999966,-2.910000086,-13.26000023
-1785,432,7183,0,0,0,11.10999966,-2.910000086,-13.26000023
-1785,432,7183,0,0,0,11.10999966,-2.910000086,-13.26000023
-1758,1345,7284,0,0,0,11.10999966,-2.910000086,-13.26000023
-1758,1345,7284,0,0,0,11.10999966,-2.910000086,-13.26000023
-1758,1345,7284,0,0,0,11.10999966,-2.910000086,-13.26000023
-1758,1345,7284,0,0,0,11.10999966,-2.910000086,-13.26000023
-1758,1345,7284,0,0,0,11.10999966,-2.910000086,-13.26000023
-1758,1345,7284,0,0,0,11.10999966,-2.910000086,-13.26000023
-1758,1345,7284,0,0,0,11.10999966,-2.910000086,-13.26000023
-1758,1345,7284,0,0,0,11.10999966,-2.910000086,-13.26000023
-1787,1411,7242,0,0,0,11.10999966,-2.910000086,-13.26000023
-1787,1411,7242,0,0,0,11.10999966,-2.910000086,-13.26000023
-1787,1411,7242,0,0,0,11.10999966,-2.910000086,-13.26000023
-1787,1411,7242,0,0,0,11.10999966,-2.910000086,-13.26000023
-1787,1411,7242,0,0,0,11.10999966,-2.910000086,-13.26000023
-1787,1411,7242,0,0,0,11.10999966,-2.910000086,-13.26000023
-1787,1411,7242,0,0,0,11.10999966,-2.910000086,-13.26000023
-1787,1411,7242,0,0,0,11.10999966,-2.910000086,-13.26000023
-1800,1411,7109,0,0,0,11.10999966,-2.910000086,-13.26000023
-1800,1411,7109,0,0,0,11.10999966,-2.910000086,-13.26000023
-1800,1411,7109,0,0,0,11.10999966,-2.910000086,-13.26000023
-1800,1411,7109,0,0,0,11.10999966,-2.910000086,-13.26000023
-1800,1411,7109,0,0,0,11.10999966,-2.910000086,-13.26000023
-1800,1411,7109,0,0,0,11.10999966,-2.910000086,-13.26000023
-1800,1411,7109,0,0,0,11.10999966,-2.910000086,-13.26000023
-1747,2590,7211,-57,0,0,11.10999966,-2.910000086,-13.26000023
-1747,2590,7211,-57,0,0,11.10999966,-2.910000086,-13.26000023
-1747,2590,7211,-57,0,0,11.10999966,-2.910000086,-13.26000023
-1747,2590,7211,-57,0,0,11.10999966,-2.910000086,-13.26000023
-1747,2590,7211,-57,0,0,11.10999966,-2.910000086,-13.26000023
-1747,2590,7211,-57,0,0,11.10999966,-2.910000086,-13.26000023
-1747,2590,7211,-57,0,0,11.10999966,-2.910000086,-13.26000023
-1634,2499,7280,-57,0,0,11.10999966,-2.910000086,-13.26000023
-1634,2499,7280,-57,0,0,11.10999966,-2.910000086,-13.26000023
-1634,2499,7280,-57,0,0,11.10999966,-2.910000086,-13.26000023
-1634,2499,7280,-57,0,0,11.10999966,-2.910000086,-13.26000023
-1634,2499,7280,-57,0,0,11.10999966,-2.910000086,-13.26000023
-1634,2499,7280,-57,0,0,11.10999966,-2.910000086,-13.26000023
-1634,2499,7280,-57,0,0,11.10999966,-2.910000086,-13.26000023
-1634,2499,7280,-57,0,0,11.10999966,-2.910000086,-13.26000023
-1795,1878,7250,-171,0,0,11.10999966,-2.910000086,-13.26000023
-1795,1878,7250,-171,0,0,11.10999966,-2.910000086,-13.26000023
-1795,1878,7250,-171,0,0,11.10999966,-2.910000086,-13.26000023
-1795,1878,7250,-171,0,0,11.10999966,-2.910000086,-13.26000023
-1795,1878,7250,-171,0,0,11.10999966,-2.910000086,-13.26000023
-1795,1878,7250,-171,0,0,11.10999966,-2.910000086,-13.26000023
-1795,1878,7250,-171,0,0,11.10999966,-2.910000086,-13.26000023
-1795,1878,7250,-171,0,0,12.97999954,-4.519999981,-18.54000092
-1882,724,7171,-114,57,0,12.97999954,-4.519999981,-18.54000092
-1882,724,7171,-114,57,0,12.97999954,-4.519999981,-18.54000092
-1882,724,7171,-114,57,0,12.97999954,-4.519999981,-18.54000092
-1882,724,7171,-114,57,0,12.97999954,-4.519999981,-18.54000092
-1882,724,7171,-114,57,0,12.97999954,-4.519999981,-18.54000092
-1882,724,7171,-114,57,0,12.97999954,-4.519999981,-18.54000092
-1882,724,7171,-114,57,0,12.97999954,-4.519999981,-18.54000092
-1892,799,7172,-171,0,0,12.97999954,-4.519999981,-18.54000092
-1892,799,7172,-171,0,0,12.97999954,-4.519999981,-18.54000092
-1892,799,7172,-171,0,0,12.97999954,-4.519999981,-18.54000092
-1892,799,7172,-171,0,0,12.97999954,-4.519999981,-18.54000092
-1892,799,7172,-171,0,0,12.97999954,-4.519999981,-18.54000092
-1892,799,7172,-171,0,0,12.97999954,-4.519999981,-18.54000092
-1892,799,7172,-171,0,0,12.97999954,-4.519999981,-18.54000092
-1732,-11,7577,-57,0,0,12.97999954,-4.519999981,-18.54000092
-1732,-11,7577,-57,0,0,12.97999954,-4.519999981,-18.54000092
-1732,-11,7577,-57,0,0,12.97999954,-4.519999981,-18.54000092
-1732,-11,7577,-57,0,0,12.97999954,-4.519999981,-18.54000092
-1732,-11,7577,-57,0,0,12.97999954,-4.519999981,-18.54000092
-1732,-11,7577,-57,0,0,12.97999954,-4.519999981,-18.54000092
-1732,-11,7577,-57,0,0,12.97999954,-4.519999981,-18.54000092
-1925,-1145,7290,-57,-57,0,12.97999954,-4.519999981,-18.54000092
-1925,-1145,7290,-57,-57,0,12.97999954,-4.519999981,-18.54000092
-1925,-1145,7290,-57,-57,0,12.97999954,-4.519999981,-18.54000092
-1925,-1145,7290,-57,-57,0,12.97999954,-4.519999981,-18.54000092
-1925,-1145,7290,-57,-57,0,12.97999954,-4.519999981,-18.54000092
-1925,-1145,7290,-57,-57,0,12.97999954,-4.519999981,-18.54000092
-1925,-1145,7290,-57,-57,0,12.97999954,-4.519999981,-18.54000092
-1925,-1145,7290,-57,-57,0,12.97999954,-4.519999981,-18.54000092
-2021,-2848,6764,-57,0,0,12.97999954,-4.519999981,-18.54000092
-2021,-2848,6764,-57,0,0,12.97999954,-4.519999981,-18.54000092
-2021,-2848,6764,-57,0,0,12.97999954,-4.519999981,-18.54000092
-2021,-2848,6764,-57,0,0,12.97999954,-4.519999981,-18.54000092
-2021,-2848,6764,-57,0,0,12.97999954,-4.519999981,-18.54000092
-2021,-2848,6764,-57,0,0,12.97999954,-4.519999981,-18.54000092
-2021,-2848,6764,-57,0,0,12.97999954,-4.519999981,-18.54000092
-1530,-3128,6888,0,0,-57,12.97999954,-4.519999981,-18.54000092
-1530,-3128,6888,0,0,-57,12.97999954,-4.519999981,-18.54000092
-1530,-3128,6888,0,0,-57,12.97999954,-4.519999981,-18.54000092
-1530,-3128,6888,0,0,-57,12.97999954,-4.519999981,-18.54000092
-1530,-3128,6888,0,0,-57,12.97999954,-4.519999981,-18.54000092
-1530,-3128,6888,0,0,-57,12.97999954,-4.519999981,-18.54000092
-1530,-3128,6888,0,0,-57,12.97999954,-4.519999981,-18.54000092
-1175,-3522,6835,0,0,0,12.97999954,-4.519999981,-18.54000092
-1175,-3522,6835,0,0,0,12.97999954,-4.519999981,-18.54000092
-1175,-3522,6835,0,0,0,12.97999954,-4.519999981,-18.54000092
-1175,-3522,6835,0,0,0,12.97999954,-4.519999981,-18.54000092
-1175,-3522,6835,0,0,0,12.97999954,-4.519999981,-18.54000092
-1175,-3522,6835,0,0,0,12.97999954,-4.519999981,-18.54000092
-1175,-3522,6835,0,0,0,12.97999954,-4.519999981,-18.54000092
-1175,-3522,6835,0,0,0,12.97999954,-4.519999981,-18.54000092
-1078,-4120,6661,0,0,0,12.97999954,-4.519999981,-18.54000092
-1078,-4120,6661,0,0,0,12.97999954,-4.519999981,-18.54000092
-1078,-4120,6661,0,0,0,12.97999954,-4.519999981,-18.54000092
-1078,-4120,6661,0,0,0,12.97999954,-4.519999981,-18.54000092
-1078,-4120,6661,0,0,0,12.97999954,-4.519999981,-18.54000092
-1078,-4120,6661,0,0,0,12.97999954,-4.519999981,-18.54000092
-1078,-4120,6661,0,0,0,12.97999954,-4.519999981,-18.54000092
-1127,-4943,6624,114,0,0,12.97999954,-4.519999981,-18.54000092
-1127,-4943,6624,114,0,0,12.97999954,-4.519999981,-18.54000092
-1127,-4943,6624,114,0,0,12.97999954,-4.519999981,-18.54000092
-1127,-4943,6624,114,0,0,12.97999954,-4.519999981,-18.54000092
-1127,-4943,6624,114,0,0,12.97999954,-4.519999981,-18.54000092
-1127,-4943,6624,114,0,0,12.97999954,-4.519999981,-18.54000092
-1127,-4943,6624,114,0,0,12.97999954,-4.519999981,-18.54000092
-1127,-4943,6624,114,0,0,12.97999954,-4.519999981,-18.54000092
-676,-4631,6859,171,0,0,12.97999954,-4.519999981,-18.54000092
-676,-4631,6859,171,0,0,12.97999954,-4.519999981,-18.54000092
-676,-4631,6859,171,0,0,12.97999954,-4.519999981,-18.54000092
-676,-4631,6859,171,0,0,12.97999954,-4.519999981,-18.54000092
-676,-4631,6859,171,0,0,12.97999954,-4.519999981,-18.54000092
-676,-4631,6859,171,0,0,12.97999954,-4.519999981,-18.54000092
-676,-4631,6859,171,0,0,12.97999954,-4.519999981,-18.54000092
-646,-3868,7061,114,0,0,12.97999954,-4.519999981,-18.54000092
-646,-3868,7061,114,0,0,12.97999954,-4.519999981,-18.54000092
-646,-3868,7061,114,0,0,12.97999954,-4.519999981,-18.54000092
-646,-3868,7061,114,0,0,12.97999954,-4.519999981,-18.54000092
-646,-3868,7061,114,0,0,12.97999954,-4.519999981,-18.54000092
-646,-3868,7061,114,0,0,12.97999954,-4.519999981,-18.54000092
-646,-3868,7061,114,0,0,12.97999954,-4.519999981,-18.54000092
-646,-3868,7061,114,0,0,12.97999954,-4.519999981,-18.54000092
-646,-3868,7061,114,0,0,8.729999542,-4.619999886,-17.81999969
-903,-3188,7158,114,0,0,8.729999542,-4.619999886,-17.81999969
-903,-3188,7158,114,0,0,8.729999542,-4.619999886,-17.81999969
-903,-3188,7158,114,0,0,8.729999542,-4.619999886,-17.81999969
-903,-3188,7158,114,0,0,8.729999542,-4.619999886,-17.81999969
-903,-3188,7158,114,0,0,8.729999542,-4.619999886,-17.81999969
-903,-3188,7158,114,0,0,8.729999542,-4.619999886,-17.81999969
-903,-3188,7158,114,0,0,8.729999542,-4.619999886,-17.81999969
-1139,-2980,7124,57,0,0,8.729999542,-4.619999886,-17.81999969
-1139,-2980,7124,57,0,0,8.729999542,-4.619999886,-17.81999969
-1139,-2980,7124,57,0,0,8.729999542,-4.619999886,-17.81999969
-1139,-2980,7124,57,0,0,8.729999542,-4.619999886,-17.81999969
-1139,-2980,7124,57,0,0,8.729999542,-4.619999886,-17.81999969
-1139,-2980,7124,57,0,0,8.729999542,-4.619999886,-17.81999969
-1139,-2980,7124,57,0,0,8.729999542,-4.619999886,-17.81999969
-996,-1425,7355,57,0,0,8.729999542,-4.619999886,-17.81999969
-996,-1425,7355,57,0,0,8.729999542,-4.619999886,-17.81999969
-996,-1425,7355,57,0,0,8.729999542,-4.619999886,-17.81999969
-996,-1425,7355,57,0,0,8.729999542,-4.619999886,-17.81999969
-996,-1425,7355,57,0,0,8.729999542,-4.619999886,-17.81999969
-996,-1425,7355,57,0,0,8.729999542,-4.619999886,-17.81999969
-996,-1425,7355,57,0,0,8.729999542,-4.619999886,-17.81999969
-904,-143,7486,0,0,0,8.729999542,-4.619999886,-17.81999969
-904,-143,7486,0,0,0,8.729999542,-4.619999886,-17.81999969
-904,-143,7486,0,0,0,8.729999542,-4.619999886,-17.81999969
-904,-143,7486,0,0,0,8.729999542,-4.619999886,-17.81999969
-904,-143,7486,0,0,0,8.729999542,-4.619999886,-17.81999969
-904,-143,7486,0,0,0,8.729999542,-4.619999886,-17.81999969
-904,-143,7486,0,0,0,8.729999542,-4.619999886,-17.81999969
-904,-143,7486,0,0,0,8.729999542,-4.619999886,-17.81999969
-910,19,7519,0,0,0,8.729999542,-4.619999886,-17.81999969
-910,19,7519,0,0,0,8.729999542,-4.619999886,-17.81999969
-910,19,7519,0,0,0,8.729999542,-4.619999886,-17.81999969
-910,19,7519,0,0,0,8.729999542,-4.619999886,-17.81999969
-910,19,7519,0,0,0,8.729999542,-4.619999886,-17.81999969
-910,19,7519,0,0,0,8.729999542,-4.619999886,-17.81999969
-910,19,7519,0,0,0,8.729999542,-4.619999886,-17.81999969
-888,-10,7462,0,0,0,8.729999542,-4.619999886,-17.81999969
-888,-10,7462,0,0,0,8.729999542,-4.619999886,-17.81999969
-888,-10,7462,0,0,0,8.729999542,-4.619999886,-17.81999969
-888,-10,7462,0,0,0,8.729999542,-4.619999886,-17.81999969
-888,-10,7462,0,0,0,8.729999542,-4.619999886,-17.81999969
-888,-10,7462,0,0,0,8.729999542,-4.619999886,-17.81999969
-888,-10,7462,0,0,0,8.729999542,-4.619999886,-17.81999969
-888,-10,7462,0,0,0,8.729999542,-4.619999886,-17.81999969
-681,1318,7779,0,0,0,8.729999542,-4.619999886,-17.81999969
-681,1318,7779,0,0,0,8.729999542,-4.619999886,-17.81999969
-681,1318,7779,0,0,0,8.729999542,-4.619999886,-17.81999969
-681,1318,7779,0,0,0,8.729999542,-4.619999886,-17.81999969
-681,1318,7779,0,0,0,8.729999542,-4.619999886,-17.81999969
-681,1318,7779,0,0,0,8.729999542,-4.619999886,-17.81999969
-681,1318,7779,0,0,0,8.729999542,-4.619999886,-17.81999969
-546,1276,8002,0,57,0,8.729999542,-4.619999886,-17.81999969
-546,1276,8002,0,57,0,8.729999542,-4.619999886,-17.81999969
-546,1276,8002,0,57,0,8.729999542,-4.619999886,-17.81999969
-546,1276,8002,0,57,0,8.729999542,-4.619999886,-17.81999969
-546,1276,8002,0,57,0,8.729999542,-4.619999886,-17.81999969
-546,1276,8002,0,57,0,8.729999542,-4.619999886,-17.81999969
-546,1276,8002,0,57,0,8.729999542,-4.619999886,-17.81999969
-546,1276,8002,0,57,0,8.729999542,-4.619999886,-17.81999969
-878,1069,7773,0,57,0,8.729999542,-4.619999886,-17.81999969
-878,1069,7773,0,57,0,8.729999542,-4.619999886,-17.81999969
-878,1069,7773,0,57,0,8.729999542,-4.619999886,-17.81999969
-878,1069,7773,0,57,0,8.729999542,-4.619999886,-17.81999969
-878,1069,7773,0,57,0,8.729999542,-4.619999886,-17.81999969
-878,1069,7773,0,57,0,8.729999542,-4.619999886,-17.81999969
-878,1069,7773,0,57,0,8.729999542,-4.619999886,-17.81999969
-1427,663,7602,0,114,0,8.729999542,-4.619999886,-17.81999969
-1427,663,7602,0,114,0,8.729999542,-4.619999886,-17.81999969
-1427,663,7602,0,114,0,8.729999542,-4.619999886,-17.81999969
-1427,663,7602,0,114,0,8.729999542,-4.619999886,-17.81999969
-1427,663,7602,0,114,0,8.729999542,-4.619999886,-17.81999969
-1427,663,7602,0,114,0,8.729999542,-4.619999886,-17.81999969
-1427,663,7602,0,114,0,8.729999542,-4.619999886,-17.81999969
-1637,1204,7564,0,171,0,8.729999542,-4.619999886,-17.81999969
-1637,1204,7564,0,171,0,8.729999542,-4.619999886,-17.81999969
-1637,1204,7564,0,171,0,8.729999542,-4.619999886,-17.81999969
-1637,1204,7564,0,171,0,8.729999542,-4.619999886,-17.81999969
-1637,1204,7564,0,171,0,8.729999542,-4.619999886,-17.81999969
-1637,1204,7564,0,171,0,8.729999542,-4.619999886,-17.81999969
-1637,1204,7564,0,171,0,8.729999542,-4.619999886,-17.81999969
-1637,1204,7564,0,171,0,8.729999542,-4.619999886,-17.81999969
-1637,1204,7564,0,171,0,34.16999817,-2.329999924,-20.10000038
-2885,1070,6802,0,57,0,34.16999817,-2.329999924,-20.10000038
-2885,1070,6802,0,57,0,34.16999817,-2.329999924,-20.10000038
-2885,1070,6802,0,57,0,34.16999817,-2.329999924,-20.10000038
-2885,1070,6802,0,57,0,34.16999817,-2.329999924,-20.10000038
-2885,1070,6802,0,57,0,34.16999817,-2.329999924,-20.10000038
-2885,1070,6802,0,57,0,34.16999817,-2.329999924,-20.10000038
-3918,910,6123,0,114,0,34.16999817,-2.329999924,-20.10000038
-3918,910,6123,0,114,0,34.16999817,-2.329999924,-20.10000038
-3918,910,6123,0,114,0,34.16999817,-2.329999924,-20.10000038
-3918,910,6123,0,114,0,34.16999817,-2.329999924,-20.10000038
-3918,910,6123,0,114,0,34.16999817,-2.329999924,-20.10000038
-3918,910,6123,0,114,0,34.16999817,-2.329999924,-20.10000038
-3918,910,6123,0,114,0,34.16999817,-2.329999924,-20.10000038
-3918,910,6123,0,114,0,34.16999817,-2.329999924,-20.10000038
-5615,691,4770,0,57,0,34.16999817,-2.329999924,-20.10000038
-5615,691,4770,0,57,0,34.16999817,-2.329999924,-20.10000038
-5615,691,4770,0,57,0,34.16999817,-2.329999924,-20.10000038
-5615,691,4770,0,57,0,34.16999817,-2.329999924,-20.10000038
-5615,691,4770,0,57,0,34.16999817,-2.329999924,-20.10000038
-5615,691,4770,0,57,0,34.16999817,-2.329999924,-20.10000038
-5615,691,4770,0,57,0,34.16999817,-2.329999924,-20.10000038
-6001,834,4462,0,0,0,34.16999817,-2.329999924,-20.10000038
-6001,834,4462,0,0,0,34.16999817,-2.329999924,-20.10000038
-6001,834,4462,0,0,0,34.16999817,-2.329999924,-20.10000038
-6001,834,4462,0,0,0,34.16999817,-2.329999924,-20.10000038
-6001,834,4462,0,0,0,34.16999817,-2.329999924,-20.10000038
-6001,834,4462,0,0,0,34.16999817,-2.329999924,-20.10000038
-6001,834,4462,0,0,0,34.16999817,-2.329999924,-20.10000038
-6001,834,4462,0,0,0,34.16999817,-2.329999924,-20.10000038
-6337,812,4238,0,0,0,34.16999817,-2.329999924,-20.10000038
-6337,812,4238,0,0,0,34.16999817,-2.329999924,-20.10000038
-6337,812,4238,0,0,0,34.16999817,-2.329999924,-20.10000038
-6337,812,4238,0,0,0,34.16999817,-2.329999924,-20.10000038
-6337,812,4238,0,0,0,34.16999817,-2.329999924,-20.10000038
-6337,812,4238,0,0,0,34.16999817,-2.329999924,-20.10000038
-6337,812,4238,0,0,0,34.16999817,-2.329999924,-20.10000038
-6780,791,3778,0,-114,0,34.16999817,-2.329999924,-20.10000038
-6780,791,3778,0,-114,0,34.16999817,-2.329999924,-20.10000038
-6780,791,3778,0,-114,0,34.16999817,-2.329999924,-20.10000038
-6780,791,3778,0,-114,0,34.16999817,-2.329999924,-20.10000038
-6780,791,3778,0,-114,0,34.16999817,-2.329999924,-20.10000038
-6780,791,3778,0,-114,0,34.16999817,-2.329999924,-20.10000038
-6780,791,3778,0,-114,0,34.16999817,-2.329999924,-20.10000038
-6780,791,3778,0,-114,0,34.16999817,-2.329999924,-20.10000038
-7450,650,3095,0,-114,0,34.16999817,-2.329999924,-20.10000038
-7450,650,3095,0,-114,0,34.16999817,-2.329999924,-20.10000038
-7450,650,3095,0,-114,0,34.16999817,-2.329999924,-20.10000038
-7450,650,3095,0,-114,0,34.16999817,-2.329999924,-20.10000038
-7450,650,3095,0,-114,0,34.16999817,-2.329999924,-20.10000038
-7450,650,3095,0,-114,0,34.16999817,-2.329999924,-20.10000038
-7450,650,3095,0,-114,0,34.16999817,-2.329999924,-20.10000038
-6673,635,3736,0,-171,0,34.16999817,-2.329999924,-20.10000038
-6673,635,3736,0,-171,0,34.16999817,-2.329999924,-20.10000038
-6673,635,3736,0,-171,0,34.16999817,-2.329999924,-20.10000038
-6673,635,3736,0,-171,0,34.16999817,-2.329999924,-20.10000038
-6673,635,3736,0,-171,0,34.16999817,-2.329999924,-20.10000038
-6673,635,3736,0,-171,0,34.16999817,-2.329999924,-20.10000038
-6673,635,3736,0,-171,0,34.16999817,-2.329999924,-20.10000038
-6673,635,3736,0,-171,0,34.16999817,-2.329999924,-20.10000038
-5523,583,4921,0,-57,0,34.16999817,-2.329999924,-20.10000038
-5523,583,4921,0,-57,0,34.16999817,-2.329999924,-20.10000038
-5523,583,4921,0,-57,0,34.16999817,-2.329999924,-20.10000038
-5523,583,4921,0,-57,0,34.16999817,-2.329999924,-20.10000038
-5523,583,4921,0,-57,0,34.16999817,-2.329999924,-20.10000038
-5523,583,4921,0,-57,0,34.16999817,-2.329999924,-20.10000038
-5523,583,4921,0,-57,0,34.16999817,-2.329999924,-20.10000038
-5162,445,5237,0,-114,0,34.16999817,-2.329999924,-20.10000038
-5162,445,5237,0,-114,0,34.16999817,-2.329999924,-20.10000038
-5162,445,5237,0,-114,0,34.16999817,-2.329999924,-20.10000038
-5162,445,5237,0,-114,0,34.16999817,-2.329999924,-20.10000038
-5162,445,5237,0,-114,0,34.16999817,-2.329999924,-20.10000038
-5162,445,5237,0,-114,0,34.16999817,-2.329999924,-20.10000038
-5162,445,5237,0,-114,0,34.16999817,-2.329999924,-20.10000038
-5162,445,5237,0,-114,0,34.16999817,-2.329999924,-20.10000038
-4933,312,5258,0,-114,0,34.16999817,-2.329999924,-20.10000038
-4933,312,5258,0,-114,0,34.16999817,-2.329999924,-20.10000038
-4933,312,5258,0,-114,0,34.16999817,-2.329999924,-20.10000038
-4933,312,5258,0,-114,0,34.16999817,-2.329999924,-20.10000038
-4933,312,5258,0,-114,0,34.16999817,-2.329999924,-20.10000038
-4933,312,5258,0,-114,0,34.16999817,-2.329999924,-20.10000038
-4933,312,5258,0,-114,0,34.16999817,-2.329999924,-20.10000038
-4933,312,5258,0,-114,0,34.16999817,-2.329999924,-20.10000038
-4933,312,5258,0,-114,0,2.930000067,-3.269999981,-26.39999962
-2866,361,6668,0,-114,0,2.930000067,-3.269999981,-26.39999962
-2866,361,6668,0,-114,0,2.930000067,-3.269999981,-26.39999962
-2866,361,6668,0,-114,0,2.930000067,-3.269999981,-26.39999962
-2866,361,6668,0,-114,0,2.930000067,-3.269999981,-26.39999962
-2866,361,6668,0,-114,0,2.930000067,-3.269999981,-26.39999962
-2866,361,6668,0,-114,0,2.930000067,-3.269999981,-26.39999962
-2055,371,6880,0,-57,0,2.930000067,-3.269999981,-26.39999962
-2055,371,6880,0,-57,0,2.930000067,-3.269999981,-26.39999962
-2055,371,6880,0,-57,0,2.930000067,-3.269999981,-26.39999962
-2055,371,6880,0,-57,0,2.930000067,-3.269999981,-26.39999962
-2055,371,6880,0,-57,0,2.930000067,-3.269999981,-26.39999962
-2055,371,6880,0,-57,0,2.930000067,-3.269999981,-26.39999962
-2055,371,6880,0,-57,0,2.930000067,-3.269999981,-26.39999962
-2055,371,6880,0,-57,0,2.930000067,-3.269999981,-26.39999962
-1489,368,7037,0,-57,0,2.930000067,-3.269999981,-26.39999962
-1489,368,7037,0,-57,0,2.930000067,-3.269999981,-26.39999962
-1489,368,7037,0,-57,0,2.930000067,-3.269999981,-26.39999962
-1489,368,7037,0,-57,0,2.930000067,-3.269999981,-26.39999962
-1489,368,7037,0,-57,0,2.930000067,-3.269999981,-26.39999962
-1489,368,7037,0,-57,0,2.930000067,-3.269999981,-26.39999962
-1489,368,7037,0,-57,0,2.930000067,-3.269999981,-26.39999962
-1434,358,6655,0,-57,0,2.930000067,-3.269999981,-26.39999962
-1434,358,6655,0,-57,0,2.930000067,-3.269999981,-26.39999962
-1434,358,6655,0,-57,0,2.930000067,-3.269999981,-26.39999962
-1434,358,6655,0,-57,0,2.930000067,-3.269999981,-26.39999962
-1434,358,6655,0,-57,0,2.930000067,-3.269999981,-26.39999962
-1434,358,6655,0,-57,0,2.930000067,-3.269999981,-26.39999962
-1434,358,6655,0,-57,0,2.930000067,-3.269999981,-26.39999962
-1434,358,6655,0,-57,0,2.930000067,-3.269999981,-26.39999962
785,353,7385,0,-57,0,2.930000067,-3.269999981,-26.39999962
785,353,7385,0,-57,0,2.930000067,-3.269999981,-26.39999962
785,353,7385,0,-57,0,2.930000067,-3.269999981,-26.39999962
785,353,7385,0,-57,0,2.930000067,-3.269999981,-26.39999962
785,353,7385,0,-57,0,2.930000067,-3.269999981,-26.39999962
785,353,7385,0,-57,0,2.930000067,-3.269999981,-26.39999962
785,353,7385,0,-57,0,2.930000067,-3.269999981,-26.39999962
785,353,7385,0,-57,0,2.930000067,-3.269999981,-26.39999962
1820,337,7536,0,0,0,2.930000067,-3.269999981,-26.39999962
1820,337,7536,0,0,0,2.930000067,-3.269999981,-26.39999962
1820,337,7536,0,0,0,2.930000067,-3.269999981,-26.39999962
1820,337,7536,0,0,0,2.930000067,-3.269999981,-26.39999962
1820,337,7536,0,0,0,2.930000067,-3.269999981,-26.39999962
1820,337,7536,0,0,0,2.930000067,-3.269999981,-26.39999962
1820,337,7536,0,0,0,2.930000067,-3.269999981,-26.39999962
1952,263,7340,0,0,0,2.930000067,-3.269999981,-26.39999962
1952,263,7340,0,0,0,2.930000067,-3.269999981,-26.39999962
1952,263,7340,0,0,0,2.930000067,-3.269999981,-26.39999962
1952,263,7340,0,0,0,2.930000067,-3.269999981,-26.39999962
1952,263,7340,0,0,0,2.930000067,-3.269999981,-26.39999962
1952,263,7340,0,0,0,2.930000067,-3.269999981,-26.39999962
1952,263,7340,0,0,0,2.930000067,-3.269999981,-26.39999962
1952,263,7340,0,0,0,2.930000067,-3.269999981,-26.39999962
1980,153,7292,0,57,0,2.930000067,-3.269999981,-26.39999962
1980,153,7292,0,57,0,2.930000067,-3.269999981,-26.39999962
1980,153,7292,0,57,0,2.930000067,-3.269999981,-26.39999962
1980,153,7292,0,57,0,2.930000067,-3.269999981,-26.39999962
1980,153,7292,0,57,0,2.930000067,-3.269999981,-26.39999962
1980,153,7292,0,57,0,2.930000067,-3.269999981,-26.39999962
1980,153,7292,0,57,0,2.930000067,-3.269999981,-26.39999962
3332,144,7706,0,171,0,2.930000067,-3.269999981,-26.39999962
3332,144,7706,0,171,0,2.930000067,-3.269999981,-26.39999962
3332,144,7706,0,171,0,2.930000067,-3.269999981,-26.39999962
3332,144,7706,0,171,0,2.930000067,-3.269999981,-26.39999962
3332,144,7706,0,171,0,2.930000067,-3.269999981,-26.39999962
3332,144,7706,0,171,0,2.930000067,-3.269999981,-26.39999962
3332,144,7706,0,171,0,2.930000067,-3.269999981,-26.39999962
3332,144,7706,0,171,0,2.930000067,-3.269999981,-26.39999962
2676,58,7689,0,171,0,2.930000067,-3.269999981,-26.39999962
2676,58,7689,0,171,0,2.930000067,-3.269999981,-26.39999962
2676,58,7689,0,171,0,2.930000067,-3.269999981,-26.39999962
2676,58,7689,0,171,0,2.930000067,-3.269999981,-26.39999962
2676,58,7689,0,171,0,2.930000067,-3.269999981,-26.39999962
2676,58,7689,0,171,0,2.930000067,-3.269999981,-26.39999962
2676,58,7689,0,171,0,2.930000067,-3.269999981,-26.39999962
1335,33,7588,0,57,0,2.930000067,-3.269999981,-26.39999962
1335,33,7588,0,57,0,2.930000067,-3.269999981,-26.39999962
1335,33,7588,0,57,0,2.930000067,-3.269999981,-26.39999962
1335,33,7588,0,57,0,2.930000067,-3.269999981,-26.39999962
1335,33,7588,0,57,0,2.930000067,-3.269999981,-26.39999962
1335,33,7588,0,57,0,2.930000067,-3.269999981,-26.39999962
1335,33,7588,0,57,0,2.930000067,-3.269999981,-26.39999962
1335,33,7588,0,57,0,2.930000067,-3.269999981,-26.39999962
1335,33,7588,0,57,0,16.37999916,-2.109999895,-23.95000076
-459,-62,7473,0,171,0,16.37999916,-2.109999895,-23.95000076
-459,-62,7473,0,171,0,16.37999916,-2.109999895,-23.95000076
-459,-62,7473,0,171,0,16.37999916,-2.109999895,-23.95000076
-459,-62,7473,0,171,0,16.37999916,-2.109999895,-23.95000076
-459,-62,7473,0,171,0,16.37999916,-2.109999895,-23.95000076
-459,-62,7473,0,171,0,16.37999916,-2.109999895,-23.95000076
-571,46,7630,0,57,0,16.37999916,-2.109999895,-23.95000076
-571,46,7630,0,57,0,16.37999916,-2.109999895,-23.95000076
-571,46,7630,0,57,0,16.37999916,-2.109999895,-23.95000076
-571,46,7630,0,57,0,16.37999916,-2.109999895,-23.95000076
-571,46,7630,0,57,0,16.37999916,-2.109999895,-23.95000076
-571,46,7630,0,57,0,16.37999916,-2.109999895,-23.95000076
-571,46,7630,0,57,0,16.37999916,-2.109999895,-23.95000076
-571,46,7630,0,57,0,16.37999916,-2.109999895,-23.95000076
-1157,97,7628,0,114,0,16.37999916,-2.109999895,-23.95000076
-1157,97,7628,0,114,0,16.37999916,-2.109999895,-23.95000076
-1157,97,7628,0,114,0,16.37999916,-2.109999895,-23.95000076
-1157,97,7628,0,114,0,16.37999916,-2.109999895,-23.95000076
-1157,97,7628,0,114,0,16.37999916,-2.109999895,-23.95000076
-1157,97,7628,0,114,0,16.37999916,-2.109999895,-23.95000076
-1157,97,7628,0,114,0,16.37999916,-2.109999895,-23.95000076
-2367,209,7142,0,57,0,16.37999916,-2.109999895,-23.95000076
-2367,209,7142,0,57,0,16.37999916,-2.109999895,-23.95000076
-2367,209,7142,0,57,0,16.37999916,-2.109999895,-23.95000076
-2367,209,7142,0,57,0,16.37999916,-2.109999895,-23.95000076
-2367,209,7142,0,57,0,16.37999916,-2.109999895,-23.95000076
-2367,209,7142,0,57,0,16.37999916,-2.109999895,-23.95000076
-2367,209,7142,0,57,0,16.37999916,-2.109999895,-23.95000076
-4152,211,6453,0,57,0,16.37999916,-2.109999895,-23.95000076
-4152,211,6453,0,57,0,16.37999916,-2.109999895,-23.95000076
-4152,211,6453,0,57,0,16.37999916,-2.109999895,-23.95000076
-4152,211,6453,0,57,0,16.37999916,-2.109999895,-23.95000076
-4152,211,6453,0,57,0,16.37999916,-2.109999895,-23.95000076
-4152,211,6453,0,57,0,16.37999916,-2.109999895,-23.95000076
-4152,211,6453,0,57,0,16.37999916,-2.109999895,-23.95000076
-4152,211,6453,0,57,0,16.37999916,-2.109999895,-23.95000076
-4365,404,6292,0,57,0,16.37999916,-2.109999895,-23.95000076
-4365,404,6292,0,57,0,16.37999916,-2.109999895,-23.95000076
-4365,404,6292,0,57,0,16.37999916,-2.109999895,-23.95000076
-4365,404,6292,0,57,0,16.37999916,-2.109999895,-23.95000076
-4365,404,6292,0,57,0,16.37999916,-2.109999895,-23.95000076
-4365,404,6292,0,57,0,16.37999916,-2.109999895,-23.95000076
-4365,404,6292,0,57,0,16.37999916,-2.109999895,-23.95000076
-5075,693,5452,0,-57,0,16.37999916,-2.109999895,-23.95000076
-5075,693,5452,0,-57,0,16.37999916,-2.109999895,-23.95000076
-5075,693,5452,0,-57,0,16.37999916,-2.109999895,-23.95000076
-5075,693,5452,0,-57,0,16.37999916,-2.109999895,-23.95000076
-5075,693,5452,0,-57,0,16.37999916,-2.109999895,-23.95000076
-5075,693,5452,0,-57,0,16.37999916,-2.109999895,-23.95000076
-5075,693,5452,0,-57,0,16.37999916,-2.109999895,-23.95000076
-5075,693,5452,0,-57,0,16.37999916,-2.109999895,-23.95000076
-5706,832,4769,0,-57,0,16.37999916,-2.109999895,-23.95000076
-5706,832,4769,0,-57,0,16.37999916,-2.109999895,-23.95000076
-5706,832,4769,0,-57,0,16.37999916,-2.109999895,-23.95000076
-5706,832,4769,0,-57,0,16.37999916,-2.109999895,-23.95000076
-5706,832,4769,0,-57,0,16.37999916,-2.109999895,-23.95000076
-5706,832,4769,0,-57,0,16.37999916,-2.109999895,-23.95000076
-5706,832,4769,0,-57,0,16.37999916,-2.109999895,-23.95000076
-5706,832,4769,0,-57,0,16.37999916,-2.109999895,-23.95000076
-6596,845,4185,0,-114,0,16.37999916,-2.109999895,-23.95000076
-6596,845,4185,0,-114,0,16.37999916,-2.109999895,-23.95000076
-6596,845,4185,0,-114,0,16.37999916,-2.109999895,-23.95000076
-6596,845,4185,0,-114,0,16.37999916,-2.109999895,-23.95000076
-6596,845,4185,0,-114,0,16.37999916,-2.109999895,-23.95000076
-6596,845,4185,0,-114,0,16.37999916,-2.109999895,-23.95000076
-6596,845,4185,0,-114,0,16.37999916,-2.109999895,-23.95000076
-6032,1206,4782,0,-171,0,16.37999916,-2.109999895,-23.95000076
-6032,1206,4782,0,-171,0,16.37999916,-2.109999895,-23.95000076
-6032,1206,4782,0,-171,0,16.37999916,-2.109999895,-23.95000076
-6032,1206,4782,0,-171,0,16.37999916,-2.109999895,-23.95000076
-6032,1206,4782,0,-171,0,16.37999916,-2.109999895,-23.95000076
-6032,1206,4782,0,-171,0,16.37999916,-2.109999895,-23.95000076
-6032,1206,4782,0,-171,0,16.37999916,-2.109999895,-23.95000076
-6032,1206,4782,0,-171,0,16.37999916,-2.109999895,-23.95000076
-5074,1477,5447,0,-114,0,16.37999916,-2.109999895,-23.95000076
-5074,1477,5447,0,-114,0,16.37999916,-2.109999895,-23.95000076
-5074,1477,5447,0,-114,0,16.37999916,-2.109999895,-23.95000076
-5074,1477,5447,0,-114,0,16.37999916,-2.109999895,-23.95000076
-5074,1477,5447,0,-114,0,16.37999916,-2.109999895,-23.95000076
-5074,1477,5447,0,-114,0,16.37999916,-2.109999895,-23.95000076
-5074,1477,5447,0,-114,0,16.37999916,-2.109999895,-23.95000076
-5074,1477,5447,0,-114,0,14.36999989,13.53999996,-25.71999931
-5074,1477,5447,0,-114,0,14.36999989,13.53999996,-25.71999931
-4217,1727,5747,0,-114,0,14.36999989,13.53999996,-25.71999931
-4217,1727,5747,0,-114,0,14.36999989,13.53999996,-25.71999931
-4217,1727,5747,0,-114,0,14.36999989,13.53999996,-25.71999931
-4217,1727,5747,0,-114,0,14.36999989,13.53999996,-25.71999931
-4217,1727,5747,0,-114,0,14.36999989,13.53999996,-25.71999931
-4217,1727,5747,0,-114,0,14.36999989,13.53999996,-25.71999931
-4070,1716,5822,0,-114,0,14.36999989,13.53999996,-25.71999931
-4070,1716,5822,0,-114,0,14.36999989,13.53999996,-25.71999931
-4070,1716,5822,0,-114,0,14.36999989,13.53999996,-25.71999931
-4070,1716,5822,0,-114,0,14.36999989,13.53999996,-25.71999931
-4070,1716,5822,0,-114,0,14.36999989,13.53999996,-25.71999931
-4070,1716,5822,0,-114,0,14.36999989,13.53999996,-25.71999931
-4070,1716,5822,0,-114,0,14.36999989,13.53999996,-25.71999931
-4070,1716,5822,0,-114,0,14.36999989,13.53999996,-25.71999931
-2311,2142,6630,-114,-57,0,14.36999989,13.53999996,-25.71999931
-2311,2142,6630,-114,-57,0,14.36999989,13.53999996,-25.71999931
-2311,2142,6630,-114,-57,0,14.36999989,13.53999996,-25.71999931
-2311,2142,6630,-114,-57,0,14.36999989,13.53999996,-25.71999931
-2311,2142,6630,-114,-57,0,14.36999989,13.53999996,-25.71999931
-2311,2142,6630,-114,-57,0,14.36999989,13.53999996,-25.71999931
-2311,2142,6630,-114,-57,0,14.36999989,13.53999996,-25.71999931
-667,2043,7280,-57,0,0,14.36999989,13.53999996,-25.71999931
-667,2043,7280,-57,0,0,14.36999989,13.53999996,-25.71999931
-667,2043,7280,-57,0,0,14.36999989,13.53999996,-25.71999931
-667,2043,7280,-57,0,0,14.36999989,13.53999996,-25.71999931
-667,2043,7280,-57,0,0,14.36999989,13.53999996,-25.71999931
-667,2043,7280,-57,0,0,14.36999989,13.53999996,-25.71999931
-667,2043,7280,-57,0,0,14.36999989,13.53999996,-25.71999931
-667,2043,7280,-57,0,0,14.36999989,13.53999996,-25.71999931
-506,1509,7324,-57,0,0,14.36999989,13.53999996,-25.71999931
-506,1509,7324,-57,0,0,14.36999989,13.53999996,-25.71999931
-506,1509,7324,-57,0,0,14.36999989,13.53999996,-25.71999931
-506,1509,7324,-57,0,0,14.36999989,13.53999996,-25.71999931
-506,1509,7324,-57,0,0,14.36999989,13.53999996,-25.71999931
-506,1509,7324,-57,0,0,14.36999989,13.53999996,-25.71999931
-506,1509,7324,-57,0,0,14.36999989,13.53999996,-25.71999931
-792,486,7153,-114,57,0,14.36999989,13.53999996,-25.71999931
-792,486,7153,-114,57,0,14.36999989,13.53999996,-25.71999931
-792,486,7153,-114,57,0,14.36999989,13.53999996,-25.71999931
-792,486,7153,-114,57,0,14.36999989,13.53999996,-25.71999931
-792,486,7153,-114,57,0,14.36999989,13.53999996,-25.71999931
-792,486,7153,-114,57,0,14.36999989,13.53999996,-25.71999931
-792,486,7153,-114,57,0,14.36999989,13.53999996,-25.71999931
-792,486,7153,-114,57,0,14.36999989,13.53999996,-25.71999931
576,293,7549,-57,0,0,14.36999989,13.53999996,-25.71999931
576,293,7549,-57,0,0,14.36999989,13.53999996,-25.71999931
576,293,7549,-57,0,0,14.36999989,13.53999996,-25.71999931
576,293,7549,-57,0,0,14.36999989,13.53999996,-25.71999931
576,293,7549,-57,0,0,14.36999989,13.53999996,-25.71999931
576,293,7549,-57,0,0,14.36999989,13.53999996,-25.71999931
576,293,7549,-57,0,0,14.36999989,13.53999996,-25.71999931
477,-237,7559,-57,57,57,14.36999989,13.53999996,-25.71999931
477,-237,7559,-57,57,57,14.36999989,13.53999996,-25.71999931
477,-237,7559,-57,57,57,14.36999989,13.53999996,-25.71999931
477,-237,7559,-57,57,57,14.36999989,13.53999996,-25.71999931
477,-237,7559,-57,57,57,14.36999989,13.53999996,-25.71999931
477,-237,7559,-57,57,57,14.36999989,13.53999996,-25.71999931
477,-237,7559,-57,57,57,14.36999989,13.53999996,-25.71999931
477,-237,7559,-57,57,57,14.36999989,13.53999996,-25.71999931
108,-1251,7565,0,114,57,14.36999989,13.53999996,-25.71999931
108,-1251,7565,0,114,57,14.36999989,13.53999996,-25.71999931
108,-1251,7565,0,114,57,14.36999989,13.53999996,-25.71999931
108,-1251,7565,0,114,57,14.36999989,13.53999996,-25.71999931
108,-1251,7565,0,114,57,14.36999989,13.53999996,-25.71999931
108,-1251,7565,0,114,57,14.36999989,13.53999996,-25.71999931
108,-1251,7565,0,114,57,14.36999989,13.53999996,-25.71999931
-871,-2423,7208,0,114,57,14.36999989,13.53999996,-25.71999931
-871,-2423,7208,0,114,57,14.36999989,13.53999996,-25.71999931
-871,-2423,7208,0,114,57,14.36999989,13.53999996,-25.71999931
-871,-2423,7208,0,114,57,14.36999989,13.53999996,-25.71999931
-871,-2423,7208,0,114,57,14.36999989,13.53999996,-25.71999931
-871,-2423,7208,0,114,57,14.36999989,13.53999996,-25.71999931
-871,-2423,7208,0,114,57,14.36999989,13.53999996,-25.71999931
-871,-2423,7208,0,114,57,14.36999989,13.53999996,-25.71999931
-882,-2333,7266,57,114,57,14.36999989,13.53999996,-25.71999931
-882,-2333,7266,57,114,57,14.36999989,13.53999996,-25.71999931
-882,-2333,7266,57,114,57,14.36999989,13.53999996,-25.71999931
-882,-2333,7266,57,114,57,14.36999989,13.53999996,-25.71999931
-882,-2333,7266,57,114,57,14.36999989,13.53999996,-25.71999931
-882,-2333,7266,57,114,57,14.36999989,13.53999996,-25.71999931
-882,-2333,7266,57,114,57,14.36999989,13.53999996,-25.71999931
-882,-2333,7266,57,114,57,32.49000168,-3.549999952,-16.27000046
-1849,-2012,6937,57,0,0,32.49000168,-3.549999952,-16.27000046
-1849,-2012,6937,57,0,0,32.49000168,-3.549999952,-16.27000046
-1849,-2012,6937,57,0,0,32.49000168,-3.549999952,-16.27000046
-1849,-2012,6937,57,0,0,32.49000168,-3.549999952,-16.27000046
-1849,-2012,6937,57,0,0,32.49000168,-3.549999952,-16.27000046
-1849,-2012,6937,57,0,0,32.49000168,-3.549999952,-16.27000046
-2892,-1809,6612,57,0,0,32.49000168,-3.549999952,-16.27000046
-2892,-1809,6612,57,0,0,32.49000168,-3.549999952,-16.27000046
-2892,-1809,6612,57,0,0,32.49000168,-3.549999952,-16.27000046
-2892,-1809,6612,57,0,0,32.49000168,-3.549999952,-16.27000046
-2892,-1809,6612,57,0,0,32.49000168,-3.549999952,-16.27000046
-2892,-1809,6612,57,0,0,32.49000168,-3.549999952,-16.27000046
-2892,-1809,6612,57,0,0,32.49000168,-3.549999952,-16.27000046
-2892,-1809,6612,57,0,0,32.49000168,-3.549999952,-16.27000046
-4366,-1710,6252,57,0,0,32.49000168,-3.549999952,-16.27000046
-4366,-1710,6252,57,0,0,32.49000168,-3.549999952,-16.27000046
-4366,-1710,6252,57,0,0,32.49000168,-3.549999952,-16.27000046
-4366,-1710,6252,57,0,0,32.49000168,-3.549999952,-16.27000046
-4366,-1710,6252,57,0,0,32.49000168,-3.549999952,-16.27000046
-4366,-1710,6252,57,0,0,32.49000168,-3.549999952,-16.27000046
-4366,-1710,6252,57,0,0,32.49000168,-3.549999952,-16.27000046
-4338,-958,6448,57,-57,0,32.49000168,-3.549999952,-16.27000046
-4338,-958,6448,57,-57,0,32.49000168,-3.549999952,-16.27000046
-4338,-958,6448,57,-57,0,32.49000168,-3.549999952,-16.27000046
-4338,-958,6448,57,-57,0,32.49000168,-3.549999952,-16.27000046
-4338,-958,6448,57,-57,0,32.49000168,-3.549999952,-16.27000046
-4338,-958,6448,57,-57,0,32.49000168,-3.549999952,-16.27000046
-4338,-958,6448,57,-57,0,32.49000168,-3.549999952,-16.27000046
-4338,-958,6448,57,-57,0,32.49000168,-3.549999952,-16.27000046
-4105,-159,6541,0,-57,0,32.49000168,-3.549999952,-16.27000046
-4105,-159,6541,0,-57,0,32.49000168,-3.549999952,-16.27000046
-4105,-159,6541,0,-57,0,32.49000168,-3.549999952,-16.27000046
-4105,-159,6541,0,-57,0,32.49000168,-3.549999952,-16.27000046
-4105,-159,6541,0,-57,0,32.49000168,-3.549999952,-16.27000046
-4105,-159,6541,0,-57,0,32.49000168,-3.549999952,-16.27000046
-4105,-159,6541,0,-57,0,32.49000168,-3.549999952,-16.27000046
-3850,92,6559,0,-114,0,32.49000168,-3.549999952,-16.27000046
-3850,92,6559,0,-114,0,32.49000168,-3.549999952,-16.27000046
-3850,92,6559,0,-114,0,32.49000168,-3.549999952,-16.27000046
-3850,92,6559,0,-114,0,32.49000168,-3.549999952,-16.27000046
-3850,92,6559,0,-114,0,32.49000168,-3.549999952,-16.27000046
-3850,92,6559,0,-114,0,32.49000168,-3.549999952,-16.27000046
-3850,92,6559,0,-114,0,32.49000168,-3.549999952,-16.27000046
-3850,92,6559,0,-114,0,32.49000168,-3.549999952,-16.27000046
-3580,141,6598,0,-114,0,32.49000168,-3.549999952,-16.27000046
-3580,141,6598,0,-114,0,32.49000168,-3.549999952,-16.27000046
-3580,141,6598,0,-114,0,32.49000168,-3.549999952,-16.27000046
-3580,141,6598,0,-114,0,32.49000168,-3.549999952,-16.27000046
-3580,141,6598,0,-114,0,32.49000168,-3.549999952,-16.27000046
-3580,141,6598,0,-114,0,32.49000168,-3.549999952,-16.27000046
-3580,141,6598,0,-114,0,32.49000168,-3.549999952,-16.27000046
-3580,141,6598,0,-114,0,32.49000168,-3.549999952,-16.27000046
-2334,1065,7203,0,-57,0,32.49000168,-3.549999952,-16.27000046
-2334,1065,7203,0,-57,0,32.49000168,-3.549999952,-16.27000046
-2334,1065,7203,0,-57,0,32.49000168,-3.549999952,-16.27000046
-2334,1065,7203,0,-57,0,32.49000168,-3.549999952,-16.27000046
-2334,1065,7203,0,-57,0,32.49000168,-3.549999952,-16.27000046
-2334,1065,7203,0,-57,0,32.49000168,-3.549999952,-16.27000046
-2334,1065,7203,0,-57,0,32.49000168,-3.549999952,-16.27000046
-1230,1165,7524,-57,-57,0,32.49000168,-3.549999952,-16.27000046
-1230,1165,7524,-57,-57,0,32.49000168,-3.549999952,-16.27000046
-1230,1165,7524,-57,-57,0,32.49000168,-3.549999952,-16.27000046
-1230,1165,7524,-57,-57,0,32.49000168,-3.549999952,-16.27000046
-1230,1165,7524,-57,-57,0,32.49000168,-3.549999952,-16.27000046
-1230,1165,7524,-57,-57,0,32.49000168,-3.549999952,-16.27000046
-1230,1165,7524,-57,-57,0,32.49000168,-3.549999952,-16.27000046
-1230,1165,7524,-57,-57,0,32.49000168,-3.549999952,-16.27000046
-892,868,7683,-114,0,0,32.49000168,-3.549999952,-16.27000046
-892,868,7683,-114,0,0,32.49000168,-3.549999952,-16.27000046
-892,868,7683,-114,0,0,32.49000168,-3.549999952,-16.27000046
-892,868,7683,-114,0,0,32.49000168,-3.549999952,-16.27000046
-892,868,7683,-114,0,0,32.49000168,-3.549999952,-16.27000046
-892,868,7683,-114,0,0,32.49000168,-3.549999952,-16.27000046
-892,868,7683,-114,0,0,32.49000168,-3.549999952,-16.27000046
-892,868,7683,-114,0,0,32.49000168,-3.549999952,-16.27000046
-1091,158,7365,-57,0,0,32.49000168,-3.549999952,-16.27000046
-1091,158,7365,-57,0,0,32.49000168,-3.549999952,-16.27000046
-1091,158,7365,-57,0,0,32.49000168,-3.549999952,-16.27000046
-1091,158,7365,-57,0,0,32.49000168,-3.549999952,-16.27000046
-1091,158,7365,-57,0,0,32.49000168,-3.549999952,-16.27000046
-1091,158,7365,-57,0,0,32.49000168,-3.549999952,-16.27000046
-1091,158,7365,-57,0,0,32.49000168,-3.549999952,-16.27000046
-1091,158,7365,-57,0,0,9.029999733,-5.050000191,-27.63999939
31,-37,7760,-57,0,0,9.029999733,-5.050000191,-27.63999939
31,-37,7760,-57,0,0,9.029999733,-5.050000191,-27.63999939
31,-37,7760,-57,0,0,9.029999733,-5.050000191,-27.63999939
31,-37,7760,-57,0,0,9.029999733,-5.050000191,-27.63999939
31,-37,7760,-57,0,0,9.029999733,-5.050000191,-27.63999939
31,-37,7760,-57,0,0,9.029999733,-5.050000191,-27.63999939
31,-37,7760,-57,0,0,9.029999733,-5.050000191,-27.63999939
99,-342,7793,-57,57,0,9.029999733,-5.050000191,-27.63999939
99,-342,7793,-57,57,0,9.029999733,-5.050000191,-27.63999939
99,-342,7793,-57,57,0,9.029999733,-5.050000191,-27.63999939
99,-342,7793,-57,57,0,9.029999733,-5.050000191,-27.63999939
99,-342,7793,-57,57,0,9.029999733,-5.050000191,-27.63999939
99,-342,7793,-57,57,0,9.029999733,-5.050000191,-27.63999939
99,-342,7793,-57,57,0,9.029999733,-5.050000191,-27.63999939
-297,-1179,7567,-57,0,0,9.029999733,-5.050000191,-27.63999939
-297,-1179,7567,-57,0,0,9.029999733,-5.050000191,-27.63999939
-297,-1179,7567,-57,0,0,9.029999733,-5.050000191,-27.63999939
-297,-1179,7567,-57,0,0,9.029999733,-5.050000191,-27.63999939
-297,-1179,7567,-57,0,0,9.029999733,-5.050000191,-27.63999939
-297,-1179,7567,-57,0,0,9.029999733,-5.050000191,-27.63999939
-297,-1179,7567,-57,0,0,9.029999733,-5.050000191,-27.63999939
-876,-2378,7376,0,57,0,9.029999733,-5.050000191,-27.63999939
-876,-2378,7376,0,57,0,9.029999733,-5.050000191,-27.63999939
-876,-2378,7376,0,57,0,9.029999733,-5.050000191,-27.63999939
-876,-2378,7376,0,57,0,9.029999733,-5.050000191,-27.63999939
-876,-2378,7376,0,57,0,9.029999733,-5.050000191,-27.63999939
-876,-2378,7376,0,57,0,9.029999733,-5.050000191,-27.63999939
-876,-2378,7376,0,57,0,9.029999733,-5.050000191,-27.63999939
-876,-2378,7376,0,57,0,9.029999733,-5.050000191,-27.63999939
-757,-2466,7409,0,57,57,9.029999733,-5.050000191,-27.63999939
-757,-2466,7409,0,57,57,9.029999733,-5.050000191,-27.63999939
-757,-2466,7409,0,57,57,9.029999733,-5.050000191,-27.63999939
-757,-2466,7409,0,57,57,9.029999733,-5.050000191,-27.63999939
-757,-2466,7409,0,57,57,9.029999733,-5.050000191,-27.63999939
-757,-2466,7409,0,57,57,9.029999733,-5.050000191,-27.63999939
-757,-2466,7409,0,57,57,9.029999733,-5.050000191,-27.63999939
-1215,-2537,7374,57,0,0,9.029999733,-5.050000191,-27.63999939
-1215,-2537,7374,57,0,0,9.029999733,-5.050000191,-27.63999939
-1215,-2537,7374,57,0,0,9.029999733,-5.050000191,-27.63999939
-1215,-2537,7374,57,0,0,9.029999733,-5.050000191,-27.63999939
-1215,-2537,7374,57,0,0,9.029999733,-5.050000191,-27.63999939
-1215,-2537,7374,57,0,0,9.029999733,-5.050000191,-27.63999939
-1215,-2537,7374,57,0,0,9.029999733,-5.050000191,-27.63999939
-1887,-2544,7243,57,0,0,9.029999733,-5.050000191,-27.63999939
-1887,-2544,7243,57,0,0,9.029999733,-5.050000191,-27.63999939
-1887,-2544,7243,57,0,0,9.029999733,-5.050000191,-27.63999939
-1887,-2544,7243,57,0,0,9.029999733,-5.050000191,-27.63999939
-1887,-2544,7243,57,0,0,9.029999733,-5.050000191,-27.63999939
-1887,-2544,7243,57,0,0,9.029999733,-5.050000191,-27.63999939
-1887,-2544,7243,57,0,0,9.029999733,-5.050000191,-27.63999939
-1887,-2544,7243,57,0,0,9.029999733,-5.050000191,-27.63999939
-2874,-2519,7009,114,0,0,9.029999733,-5.050000191,-27.63999939
-2874,-2519,7009,114,0,0,9.029999733,-5.050000191,-27.63999939
-2874,-2519,7009,114,0,0,9.029999733,-5.050000191,-27.63999939
-2874,-2519,7009,114,0,0,9.029999733,-5.050000191,-27.63999939
-2874,-2519,7009,114,0,0,9.029999733,-5.050000191,-27.63999939
-2874,-2519,7009,114,0,0,9.029999733,-5.050000191,-27.63999939
-2874,-2519,7009,114,0,0,9.029999733,-5.050000191,-27.63999939
-2998,-1900,7135,114,0,0,9.029999733,-5.050000191,-27.63999939
-2998,-1900,7135,114,0,0,9.029999733,-5.050000191,-27.63999939
-2998,-1900,7135,114,0,0,9.029999733,-5.050000191,-27.63999939
-2998,-1900,7135,114,0,0,9.029999733,-5.050000191,-27.63999939
-2998,-1900,7135,114,0,0,9.029999733,-5.050000191,-27.63999939
-2998,-1900,7135,114,0,0,9.029999733,-5.050000191,-27.63999939
-2998,-1900,7135,114,0,0,9.029999733,-5.050000191,-27.63999939
-2998,-1900,7135,114,0,0,9.029999733,-5.050000191,-27.63999939
-3088,-1148,7016,57,0,0,9.029999733,-5.050000191,-27.63999939
-3088,-1148,7016,57,0,0,9.029999733,-5.050000191,-27.63999939
-3088,-1148,7016,57,0,0,9.029999733,-5.050000191,-27.63999939
-3088,-1148,7016,57,0,0,9.029999733,-5.050000191,-27.63999939
-3088,-1148,7016,57,0,0,9.029999733,-5.050000191,-27.63999939
-3088,-1148,7016,57,0,0,9.029999733,-5.050000191,-27.63999939
-3088,-1148,7016,57,0,0,9.029999733,-5.050000191,-27.63999939
-3138,-665,6883,57,-114,-57,9.029999733,-5.050000191,-27.63999939
-3138,-665,6883,57,-114,-57,9.029999733,-5.050000191,-27.63999939
-3138,-665,6883,57,-114,-57,9.029999733,-5.050000191,-27.63999939
-3138,-665,6883,57,-114,-57,9.029999733,-5.050000191,-27.63999939
-3138,-665,6883,57,-114,-57,9.029999733,-5.050000191,-27.63999939
-3138,-665,6883,57,-114,-57,9.029999733,-5.050000191,-27.63999939
-3138,-665,6883,57,-114,-57,9.029999733,-5.050000191,-27.63999939
-3138,-665,6883,57,-114,-57,9.029999733,-5.050000191,-27.63999939
-3138,-665,6883,57,-114,-57,17.48999977,14.02000046,-24.10000038
-3038,-564,6813,0,-57,0,17.48999977,14.02000046,-24.10000038
-3038,-564,6813,0,-57,0,17.48999977,14.02000046,-24.10000038
-3038,-564,6813,0,-57,0,17.48999977,14.02000046,-24.10000038
-3038,-564,6813,0,-57,0,17.48999977,14.02000046,-24.10000038
-3038,-564,6813,0,-57,0,17.48999977,14.02000046,-24.10000038
-3038,-564,6813,0,-57,0,17.48999977,14.02000046,-24.10000038
-3038,-564,6813,0,-57,0,17.48999977,14.02000046,-24.10000038
-2460,656,7107,0,-57,0,17.48999977,14.02000046,-24.10000038
-2460,656,7107,0,-57,0,17.48999977,14.02000046,-24.10000038
-2460,656,7107,0,-57,0,17.48999977,14.02000046,-24.10000038
-2460,656,7107,0,-57,0,17.48999977,14.02000046,-24.10000038
-2460,656,7107,0,-57,0,17.48999977,14.02000046,-24.10000038
-2460,656,7107,0,-57,0,17.48999977,14.02000046,-24.10000038
-2460,656,7107,0,-57,0,17.48999977,14.02000046,-24.10000038
-1678,1259,7249,-114,-57,0,17.48999977,14.02000046,-24.10000038
-1678,1259,7249,-114,-57,0,17.48999977,14.02000046,-24.10000038
-1678,1259,7249,-114,-57,0,17.48999977,14.02000046,-24.10000038
-1678,1259,7249,-114,-57,0,17.48999977,14.02000046,-24.10000038
-1678,1259,7249,-114,-57,0,17.48999977,14.02000046,-24.10000038
-1678,1259,7249,-114,-57,0,17.48999977,14.02000046,-24.10000038
-1678,1259,7249,-114,-57,0,17.48999977,14.02000046,-24.10000038
-1678,1259,7249,-114,-57,0,17.48999977,14.02000046,-24.10000038
-1147,994,7574,-57,0,0,17.48999977,14.02000046,-24.10000038
-1147,994,7574,-57,0,0,17.48999977,14.02000046,-24.10000038
-1147,994,7574,-57,0,0,17.48999977,14.02000046,-24.10000038
-1147,994,7574,-57,0,0,17.48999977,14.02000046,-24.10000038
-1147,994,7574,-57,0,0,17.48999977,14.02000046,-24.10000038
-1147,994,7574,-57,0,0,17.48999977,14.02000046,-24.10000038
-1147,994,7574,-57,0,0,17.48999977,14.02000046,-24.10000038
-1147,994,7574,-57,0,0,17.48999977,14.02000046,-24.10000038
-1406,363,7358,-57,0,57,17.48999977,14.02000046,-24.10000038
-1406,363,7358,-57,0,57,17.48999977,14.02000046,-24.10000038
-1406,363,7358,-57,0,57,17.48999977,14.02000046,-24.10000038
-1406,363,7358,-57,0,57,17.48999977,14.02000046,-24.10000038
-1406,363,7358,-57,0,57,17.48999977,14.02000046,-24.10000038
-1406,363,7358,-57,0,57,17.48999977,14.02000046,-24.10000038
-1406,363,7358,-57,0,57,17.48999977,14.02000046,-24.10000038
-649,530,7637,-57,0,0,17.48999977,14.02000046,-24.10000038
-649,530,7637,-57,0,0,17.48999977,14.02000046,-24.10000038
-649,530,7637,-57,0,0,17.48999977,14.02000046,-24.10000038
-649,530,7637,-57,0,0,17.48999977,14.02000046,-24.10000038
-649,530,7637,-57,0,0,17.48999977,14.02000046,-24.10000038
-649,530,7637,-57,0,0,17.48999977,14.02000046,-24.10000038
-649,530,7637,-57,0,0,17.48999977,14.02000046,-24.10000038
-490,158,7861,-57,0,0,17.48999977,14.02000046,-24.10000038
-490,158,7861,-57,0,0,17.48999977,14.02000046,-24.10000038
-490,158,7861,-57,0,0,17.48999977,14.02000046,-24.10000038
-490,158,7861,-57,0,0,17.48999977,14.02000046,-24.10000038
-490,158,7861,-57,0,0,17.48999977,14.02000046,-24.10000038
-490,158,7861,-57,0,0,17.48999977,14.02000046,-24.10000038
-490,158,7861,-57,0,0,17.48999977,14.02000046,-24.10000038
-490,158,7861,-57,0,0,17.48999977,14.02000046,-24.10000038
-650,-742,7796,-57,0,0,17.48999977,14.02000046,-24.10000038
-650,-742,7796,-57,0,0,17.48999977,14.02000046,-24.10000038
-650,-742,7796,-57,0,0,17.48999977,14.02000046,-24.10000038
-650,-742,7796,-57,0,0,17.48999977,14.02000046,-24.10000038
-650,-742,7796,-57,0,0,17.48999977,14.02000046,-24.10000038
-650,-742,7796,-57,0,0,17.48999977,14.02000046,-24.10000038
-650,-742,7796,-57,0,0,17.48999977,14.02000046,-24.10000038
-942,-1954,7480,0,0,0,17.48999977,14.02000046,-24.10000038
-942,-1954,7480,0,0,0,17.48999977,14.02000046,-24.10000038
-942,-1954,7480,0,0,0,17.48999977,14.02000046,-24.10000038
-942,-1954,7480,0,0,0,17.48999977,14.02000046,-24.10000038
-942,-1954,7480,0,0,0,17.48999977,14.02000046,-24.10000038
-942,-1954,7480,0,0,0,17.48999977,14.02000046,-24.10000038
-942,-1954,7480,0,0,0,17.48999977,14.02000046,-24.10000038
-942,-1954,7480,0,0,0,17.48999977,14.02000046,-24.10000038
-668,-2141,7442,0,0,0,17.48999977,14.02000046,-24.10000038
-668,-2141,7442,0,0,0,17.48999977,14.02000046,-24.10000038
-668,-2141,7442,0,0,0,17.48999977,14.02000046,-24.10000038
-668,-2141,7442,0,0,0,17.48999977,14.02000046,-24.10000038
-668,-2141,7442,0,0,0,17.48999977,14.02000046,-24.10000038
-668,-2141,7442,0,0,0,17.48999977,14.02000046,-24.10000038
-668,-2141,7442,0,0,0,17.48999977,14.02000046,-24.10000038
-671,-2413,7516,0,0,0,17.48999977,14.02000046,-24.10000038
-671,-2413,7516,0,0,0,17.48999977,14.02000046,-24.10000038
-671,-2413,7516,0,0,0,17.48999977,14.02000046,-24.10000038
-671,-2413,7516,0,0,0,17.48999977,14.02000046,-24.10000038
-671,-2413,7516,0,0,0,17.48999977,14.02000046,-24.10000038
-671,-2413,7516,0,0,0,17.48999977,14.02000046,-24.10000038
-671,-2413,7516,0,0,0,17.48999977,14.02000046,-24.10000038
-671,-2413,7516,0,0,0,12.64999962,-17.63999939,-22.63999939
-671,-2413,7516,0,0,0,12.64999962,-17.63999939,-22.63999939
-742,-3107,7487,0,0,0,12.64999962,-17.63999939,-22.63999939
-742,-3107,7487,0,0,0,12.64999962,-17.63999939,-22.63999939
-742,-3107,7487,0,0,0,12.64999962,-17.63999939,-22.63999939
-742,-3107,7487,0,0,0,12.64999962,-17.63999939,-22.63999939
-742,-3107,7487,0,0,0,12.64999962,-17.63999939,-22.63999939
-742,-3107,7487,0,0,0,12.64999962,-17.63999939,-22.63999939
-915,-3643,7444,114,0,0,12.64999962,-17.63999939,-22.63999939
-915,-3643,7444,114,0,0,12.64999962,-17.63999939,-22.63999939
-915,-3643,7444,114,0,0,12.64999962,-17.63999939,-22.63999939
-915,-3643,7444,114,0,0,12.64999962,-17.63999939,-22.63999939
-915,-3643,7444,114,0,0,12.64999962,-17.63999939,-22.63999939
-915,-3643,7444,114,0,0,12.64999962,-17.63999939,-22.63999939
-915,-3643,7444,114,0,0,12.64999962,-17.63999939,-22.63999939
-861,-3246,7594,171,0,0,12.64999962,-17.63999939,-22.63999939
-861,-3246,7594,171,0,0,12.64999962,-17.63999939,-22.63999939
-861,-3246,7594,171,0,0,12.64999962,-17.63999939,-22.63999939
-861,-3246,7594,171,0,0,12.64999962,-17.63999939,-22.63999939
-861,-3246,7594,171,0,0,12.64999962,-17.63999939,-22.63999939
-861,-3246,7594,171,0,0,12.64999962,-17.63999939,-22.63999939
-861,-3246,7594,171,0,0,12.64999962,-17.63999939,-22.63999939
-861,-3246,7594,171,0,0,12.64999962,-17.63999939,-22.63999939
-940,-2401,7534,114,0,0,12.64999962,-17.63999939,-22.63999939
-940,-2401,7534,114,0,0,12.64999962,-17.63999939,-22.63999939
-940,-2401,7534,114,0,0,12.64999962,-17.63999939,-22.63999939
-940,-2401,7534,114,0,0,12.64999962,-17.63999939,-22.63999939
-940,-2401,7534,114,0,0,12.64999962,-17.63999939,-22.63999939
-940,-2401,7534,114,0,0,12.64999962,-17.63999939,-22.63999939
-940,-2401,7534,114,0,0,12.64999962,-17.63999939,-22.63999939
-940,-2401,7534,114,0,0,12.64999962,-17.63999939,-22.63999939
-1058,-1547,7215,0,0,0,12.64999962,-17.63999939,-22.63999939
-1058,-1547,7215,0,0,0,12.64999962,-17.63999939,-22.63999939
-1058,-1547,7215,0,0,0,12.64999962,-17.63999939,-22.63999939
-1058,-1547,7215,0,0,0,12.64999962,-17.63999939,-22.63999939
-1058,-1547,7215,0,0,0,12.64999962,-17.63999939,-22.63999939
-1058,-1547,7215,0,0,0,12.64999962,-17.63999939,-22.63999939
-1058,-1547,7215,0,0,0,12.64999962,-17.63999939,-22.63999939
-1103,-1488,6874,-171,0,0,12.64999962,-17.63999939,-22.63999939
-1103,-1488,6874,-171,0,0,12.64999962,-17.63999939,-22.63999939
-1103,-1488,6874,-171,0,0,12.64999962,-17.63999939,-22.63999939
-1103,-1488,6874,-171,0,0,12.64999962,-17.63999939,-22.63999939
-1103,-1488,6874,-171,0,0,12.64999962,-17.63999939,-22.63999939
-1103,-1488,6874,-171,0,0,12.64999962,-17.63999939,-22.63999939
-1103,-1488,6874,-171,0,0,12.64999962,-17.63999939,-22.63999939
-1103,-1488,6874,-171,0,0,12.64999962,-17.63999939,-22.63999939
-1094,-762,6853,-171,-57,0,12.64999962,-17.63999939,-22.63999939
-1094,-762,6853,-171,-57,0,12.64999962,-17.63999939,-22.63999939
-1094,-762,6853,-171,-57,0,12.64999962,-17.63999939,-22.63999939
-1094,-762,6853,-171,-57,0,12.64999962,-17.63999939,-22.63999939
-1094,-762,6853,-171,-57,0,12.64999962,-17.63999939,-22.63999939
-1094,-762,6853,-171,-57,0,12.64999962,-17.63999939,-22.63999939
-1094,-762,6853,-171,-57,0,12.64999962,-17.63999939,-22.63999939
-968,-1235,7363,-57,-57,0,12.64999962,-17.63999939,-22.63999939
-968,-1235,7363,-57,-57,0,12.64999962,-17.63999939,-22.63999939
-968,-1235,7363,-57,-57,0,12.64999962,-17.63999939,-22.63999939
-968,-1235,7363,-57,-57,0,12.64999962,-17.63999939,-22.63999939
-968,-1235,7363,-57,-57,0,12.64999962,-17.63999939,-22.63999939
-968,-1235,7363,-57,-57,0,12.64999962,-17.63999939,-22.63999939
-968,-1235,7363,-57,-57,0,12.64999962,-17.63999939,-22.63999939
-587,-2623,8692,171,57,0,12.64999962,-17.63999939,-22.63999939
-587,-2623,8692,171,57,0,12.64999962,-17.63999939,-22.63999939
-587,-2623,8692,171,57,0,12.64999962,-17.63999939,-22.63999939
-587,-2623,8692,171,57,0,12.64999962,-17.63999939,-22.63999939
-587,-2623,8692,171,57,0,12.64999962,-17.63999939,-22.63999939
-587,-2623,8692,171,57,0,12.64999962,-17.63999939,-22.63999939
-587,-2623,8692,171,57,0,12.64999962,-17.63999939,-22.63999939
-587,-2623,8692,171,57,0,12.64999962,-17.63999939,-22.63999939
-891,-3396,7593,229,0,0,12.64999962,-17.63999939,-22.63999939
-891,-3396,7593,229,0,0,12.64999962,-17.63999939,-22.63999939
-891,-3396,7593,229,0,0,12.64999962,-17.63999939,-22.63999939
-891,-3396,7593,229,0,0,12.64999962,-17.63999939,-22.63999939
-891,-3396,7593,229,0,0,12.64999962,-17.63999939,-22.63999939
-891,-3396,7593,229,0,0,12.64999962,-17.63999939,-22.63999939
-891,-3396,7593,229,0,0,12.64999962,-17.63999939,-22.63999939
-891,-3396,7593,229,0,0,12.64999962,-17.63999939,-22.63999939
-997,-1972,6944,0,0,0,12.64999962,-17.63999939,-22.63999939
-997,-1972,6944,0,0,0,12.64999962,-17.63999939,-22.63999939
-997,-1972,6944,0,0,0,12.64999962,-17.63999939,-22.63999939
-997,-1972,6944,0,0,0,12.64999962,-17.63999939,-22.63999939
-997,-1972,6944,0,0,0,12.64999962,-17.63999939,-22.63999939
-997,-1972,6944,0,0,0,12.64999962,-17.63999939,-22.63999939
-997,-1972,6944,0,0,0,12.64999962,-17.63999939,-22.63999939
-997,-1972,6944,0,0,0,13.10999966,-5.570000172,-27.70999908
-997,-1972,6944,0,0,0,13.10999966,-5.570000172,-27.70999908
-938,-432,5843,-171,0,0,13.10999966,-5.570000172,-27.70999908
-938,-432,5843,-171,0,0,13.10999966,-5.570000172,-27.70999908
-938,-432,5843,-171,0,0,13.10999966,-5.570000172,-27.70999908
-938,-432,5843,-171,0,0,13.10999966,-5.570000172,-27.70999908
-938,-432,5843,-171,0,0,13.10999966,-5.570000172,-27.70999908
-938,-432,5843,-171,0,0,13.10999966,-5.570000172,-27.70999908
-1059,-1152,5631,-229,-57,0,13.10999966,-5.570000172,-27.70999908
-1059,-1152,5631,-229,-57,0,13.10999966,-5.570000172,-27.70999908
-1059,-1152,5631,-229,-57,0,13.10999966,-5.570000172,-27.70999908
-1059,-1152,5631,-229,-57,0,13.10999966,-5.570000172,-27.70999908
-1059,-1152,5631,-229,-57,0,13.10999966,-5.570000172,-27.70999908
-1059,-1152,5631,-229,-57,0,13.10999966,-5.570000172,-27.70999908
-1059,-1152,5631,-229,-57,0,13.10999966,-5.570000172,-27.70999908
-1059,-1152,5631,-229,-57,0,13.10999966,-5.570000172,-27.70999908
-1066,-3349,6280,57,0,0,13.10999966,-5.570000172,-27.70999908
-1066,-3349,6280,57,0,0,13.10999966,-5.570000172,-27.70999908
-1066,-3349,6280,57,0,0,13.10999966,-5.570000172,-27.70999908
-1066,-3349,6280,57,0,0,13.10999966,-5.570000172,-27.70999908
-1066,-3349,6280,57,0,0,13.10999966,-5.570000172,-27.70999908
-1066,-3349,6280,57,0,0,13.10999966,-5.570000172,-27.70999908
-1066,-3349,6280,57,0,0,13.10999966,-5.570000172,-27.70999908
-728,-3085,8095,171,57,0,13.10999966,-5.570000172,-27.70999908
-728,-3085,8095,171,57,0,13.10999966,-5.570000172,-27.70999908
-728,-3085,8095,171,57,0,13.10999966,-5.570000172,-27.70999908
-728,-3085,8095,171,57,0,13.10999966,-5.570000172,-27.70999908
-728,-3085,8095,171,57,0,13.10999966,-5.570000172,-27.70999908
-728,-3085,8095,171,57,0,13.10999966,-5.570000172,-27.70999908
-728,-3085,8095,171,57,0,13.10999966,-5.570000172,-27.70999908
-728,-3085,8095,171,57,0,13.10999966,-5.570000172,-27.70999908
-817,-1973,7737,0,0,0,13.10999966,-5.570000172,-27.70999908
-817,-1973,7737,0,0,0,13.10999966,-5.570000172,-27.70999908
-817,-1973,7737,0,0,0,13.10999966,-5.570000172,-27.70999908
-817,-1973,7737,0,0,0,13.10999966,-5.570000172,-27.70999908
-817,-1973,7737,0,0,0,13.10999966,-5.570000172,-27.70999908
-817,-1973,7737,0,0,0,13.10999966,-5.570000172,-27.70999908
-817,-1973,7737,0,0,0,13.10999966,-5.570000172,-27.70999908
-994,-1161,5546,-114,0,0,13.10999966,-5.570000172,-27.70999908
-994,-1161,5546,-114,0,0,13.10999966,-5.570000172,-27.70999908
-994,-1161,5546,-114,0,0,13.10999966,-5.570000172,-27.70999908
-994,-1161,5546,-114,0,0,13.10999966,-5.570000172,-27.70999908
-994,-1161,5546,-114,0,0,13.10999966,-5.570000172,-27.70999908
-994,-1161,5546,-114,0,0,13.10999966,-5.570000172,-27.70999908
-994,-1161,5546,-114,0,0,13.10999966,-5.570000172,-27.70999908
-994,-1161,5546,-114,0,0,13.10999966,-5.570000172,-27.70999908
-1263,-2517,3796,-114,-114,0,13.10999966,-5.570000172,-27.70999908
-1263,-2517,3796,-114,-114,0,13.10999966,-5.570000172,-27.70999908
-1263,-2517,3796,-114,-114,0,13.10999966,-5.570000172,-27.70999908
-1263,-2517,3796,-114,-114,0,13.10999966,-5.570000172,-27.70999908
-1263,-2517,3796,-114,-114,0,13.10999966,-5.570000172,-27.70999908
-1263,-2517,3796,-114,-114,0,13.10999966,-5.570000172,-27.70999908
-1263,-2517,3796,-114,-114,0,13.10999966,-5.570000172,-27.70999908
-792,-2833,7097,171,0,0,13.10999966,-5.570000172,-27.70999908
-792,-2833,7097,171,0,0,13.10999966,-5.570000172,-27.70999908
-792,-2833,7097,171,0,0,13.10999966,-5.570000172,-27.70999908
-792,-2833,7097,171,0,0,13.10999966,-5.570000172,-27.70999908
-792,-2833,7097,171,0,0,13.10999966,-5.570000172,-27.70999908
-792,-2833,7097,171,0,0,13.10999966,-5.570000172,-27.70999908
-792,-2833,7097,171,0,0,13.10999966,-5.570000172,-27.70999908
-792,-2833,7097,171,0,0,13.10999966,-5.570000172,-27.70999908
-621,-2176,8652,114,57,0,13.10999966,-5.570000172,-27.70999908
-621,-2176,8652,114,57,0,13.10999966,-5.570000172,-27.70999908
-621,-2176,8652,114,57,0,13.10999966,-5.570000172,-27.70999908
-621,-2176,8652,114,57,0,13.10999966,-5.570000172,-27.70999908
-621,-2176,8652,114,57,0,13.10999966,-5.570000172,-27.70999908
-621,-2176,8652,114,57,0,13.10999966,-5.570000172,-27.70999908
-621,-2176,8652,114,57,0,13.10999966,-5.570000172,-27.70999908
-917,-1484,5995,-57,0,0,13.10999966,-5.570000172,-27.70999908
-917,-1484,5995,-57,0,0,13.10999966,-5.570000172,-27.70999908
-917,-1484,5995,-57,0,0,13.10999966,-5.570000172,-27.70999908
-917,-1484,5995,-57,0,0,13.10999966,-5.570000172,-27.70999908
-917,-1484,5995,-57,0,0,13.10999966,-5.570000172,-27.70999908
-917,-1484,5995,-57,0,0,13.10999966,-5.570000172,-27.70999908
-917,-1484,5995,-57,0,0,13.10999966,-5.570000172,-27.70999908
-917,-1484,5995,-57,0,0,13.10999966,-5.570000172,-27.70999908
-1233,-1868,2809,-57,-57,0,13.10999966,-5.570000172,-27.70999908
-1233,-1868,2809,-57,-57,0,13.10999966,-5.570000172,-27.70999908
-1233,-1868,2809,-57,-57,0,13.10999966,-5.570000172,-27.70999908
-1233,-1868,2809,-57,-57,0,13.10999966,-5.570000172,-27.70999908
-1233,-1868,2809,-57,-57,0,13.10999966,-5.570000172,-27.70999908
-1233,-1868,2809,-57,-57,0,13.10999966,-5.570000172,-27.70999908
-1233,-1868,2809,-57,-57,0,13.10999966,-5.570000172,-27.70999908
-1233,-1868,2809,-57,-57,0,13.10999966,-5.570000172,-27.70999908
-1233,-1868,2809,-57,-57,0,6.659999847,-26.98999977,-31.97999954
-522,-1522,6738,57,0,0,6.659999847,-26.98999977,-31.97999954
-522,-1522,6738,57,0,0,6.659999847,-26.98999977,-31.97999954
-522,-1522,6738,57,0,0,6.659999847,-26.98999977,-31.97999954
-522,-1522,6738,57,0,0,6.659999847,-26.98999977,-31.97999954
-522,-1522,6738,57,0,0,6.659999847,-26.98999977,-31.97999954
-522,-1522,6738,57,0,0,6.659999847,-26.98999977,-31.97999954
-445,-1450,8667,57,114,0,6.659999847,-26.98999977,-31.97999954
-445,-1450,8667,57,114,0,6.659999847,-26.98999977,-31.97999954
-445,-1450,8667,57,114,0,6.659999847,-26.98999977,-31.97999954
-445,-1450,8667,57,114,0,6.659999847,-26.98999977,-31.97999954
-445,-1450,8667,57,114,0,6.659999847,-26.98999977,-31.97999954
-445,-1450,8667,57,114,0,6.659999847,-26.98999977,-31.97999954
-445,-1450,8667,57,114,0,6.659999847,-26.98999977,-31.97999954
-445,-1450,8667,57,114,0,6.659999847,-26.98999977,-31.97999954
-982,-964,6004,0,0,0,6.659999847,-26.98999977,-31.97999954
-982,-964,6004,0,0,0,6.659999847,-26.98999977,-31.97999954
-982,-964,6004,0,0,0,6.659999847,-26.98999977,-31.97999954
-982,-964,6004,0,0,0,6.659999847,-26.98999977,-31.97999954
-982,-964,6004,0,0,0,6.659999847,-26.98999977,-31.97999954
-982,-964,6004,0,0,0,6.659999847,-26.98999977,-31.97999954
-982,-964,6004,0,0,0,6.659999847,-26.98999977,-31.97999954
-1521,-870,1810,-57,0,0,6.659999847,-26.98999977,-31.97999954
-1521,-870,1810,-57,0,0,6.659999847,-26.98999977,-31.97999954
-1521,-870,1810,-57,0,0,6.659999847,-26.98999977,-31.97999954
-1521,-870,1810,-57,0,0,6.659999847,-26.98999977,-31.97999954
-1521,-870,1810,-57,0,0,6.659999847,-26.98999977,-31.97999954
-1521,-870,1810,-57,0,0,6.659999847,-26.98999977,-31.97999954
-1521,-870,1810,-57,0,0,6.659999847,-26.98999977,-31.97999954
-1521,-870,1810,-57,0,0,6.659999847,-26.98999977,-31.97999954
-1091,-542,3475,-57,-57,0,6.659999847,-26.98999977,-31.97999954
-1091,-542,3475,-57,-57,0,6.659999847,-26.98999977,-31.97999954
-1091,-542,3475,-57,-57,0,6.659999847,-26.98999977,-31.97999954
-1091,-542,3475,-57,-57,0,6.659999847,-26.98999977,-31.97999954
-1091,-542,3475,-57,-57,0,6.659999847,-26.98999977,-31.97999954
-1091,-542,3475,-57,-57,0,6.659999847,-26.98999977,-31.97999954
-1091,-542,3475,-57,-57,0,6.659999847,-26.98999977,-31.97999954
-1091,-542,3475,-57,-57,0,6.659999847,-26.98999977,-31.97999954
-552,-792,7532,0,57,0,6.659999847,-26.98999977,-31.97999954
-552,-792,7532,0,57,0,6.659999847,-26.98999977,-31.97999954
-552,-792,7532,0,57,0,6.659999847,-26.98999977,-31.97999954
-552,-792,7532,0,57,0,6.659999847,-26.98999977,-31.97999954
-552,-792,7532,0,57,0,6.659999847,-26.98999977,-31.97999954
-552,-792,7532,0,57,0,6.659999847,-26.98999977,-31.97999954
-552,-792,7532,0,57,0,6.659999847,-26.98999977,-31.97999954
-981,-1069,7103,57,57,0,6.659999847,-26.98999977,-31.97999954
-981,-1069,7103,57,57,0,6.659999847,-26.98999977,-31.97999954
-981,-1069,7103,57,57,0,6.659999847,-26.98999977,-31.97999954
-981,-1069,7103,57,57,0,6.659999847,-26.98999977,-31.97999954
-981,-1069,7103,57,57,0,6.659999847,-26.98999977,-31.97999954
-981,-1069,7103,57,57,0,6.659999847,-26.98999977,-31.97999954
-981,-1069,7103,57,57,0,6.659999847,-26.98999977,-31.97999954
-1582,-1017,2933,0,0,0,6.659999847,-26.98999977,-31.97999954
-1582,-1017,2933,0,0,0,6.659999847,-26.98999977,-31.97999954
-1582,-1017,2933,0,0,0,6.659999847,-26.98999977,-31.97999954
-1582,-1017,2933,0,0,0,6.659999847,-26.98999977,-31.97999954
-1582,-1017,2933,0,0,0,6.659999847,-26.98999977,-31.97999954
-1582,-1017,2933,0,0,0,6.659999847,-26.98999977,-31.97999954
-1582,-1017,2933,0,0,0,6.659999847,-26.98999977,-31.97999954
-1582,-1017,2933,0,0,0,6.659999847,-26.98999977,-31.97999954
-1436,-404,3560,0,-114,0,6.659999847,-26.98999977,-31.97999954
-1436,-404,3560,0,-114,0,6.659999847,-26.98999977,-31.97999954
-1436,-404,3560,0,-114,0,6.659999847,-26.98999977,-31.97999954
-1436,-404,3560,0,-114,0,6.659999847,-26.98999977,-31.97999954
-1436,-404,3560,0,-114,0,6.659999847,-26.98999977,-31.97999954
-1436,-404,3560,0,-114,0,6.659999847,-26.98999977,-31.97999954
-1436,-404,3560,0,-114,0,6.659999847,-26.98999977,-31.97999954
-1436,-404,3560,0,-114,0,6.659999847,-26.98999977,-31.97999954
-732,-520,7209,0,57,0,6.659999847,-26.98999977,-31.97999954
-732,-520,7209,0,57,0,6.659999847,-26.98999977,-31.97999954
-732,-520,7209,0,57,0,6.659999847,-26.98999977,-31.97999954
-732,-520,7209,0,57,0,6.659999847,-26.98999977,-31.97999954
-732,-520,7209,0,57,0,6.659999847,-26.98999977,-31.97999954
-732,-520,7209,0,57,0,6.659999847,-26.98999977,-31.97999954
-732,-520,7209,0,57,0,6.659999847,-26.98999977,-31.97999954
-906,-1004,7539,57,0,0,6.659999847,-26.98999977,-31.97999954
-906,-1004,7539,57,0,0,6.659999847,-26.98999977,-31.97999954
-906,-1004,7539,57,0,0,6.659999847,-26.98999977,-31.97999954
-906,-1004,7539,57,0,0,6.659999847,-26.98999977,-31.97999954
-906,-1004,7539,57,0,0,6.659999847,-26.98999977,-31.97999954
-906,-1004,7539,57,0,0,6.659999847,-26.98999977,-31.97999954
-906,-1004,7539,57,0,0,6.659999847,-26.98999977,-31.97999954
-906,-1004,7539,57,0,0,6.659999847,-26.98999977,-31.97999954
-906,-1004,7539,57,0,0,11.40999985,-18.53000069,-35.84000015
-1674,-1044,2895,0,0,0,11.40999985,-18.53000069,-35.84000015
-1674,-1044,2895,0,0,0,11.40999985,-18.53000069,-35.84000015
-1674,-1044,2895,0,0,0,11.40999985,-18.53000069,-35.84000015
-1674,-1044,2895,0,0,0,11.40999985,-18.53000069,-35.84000015
-1674,-1044,2895,0,0,0,11.40999985,-18.53000069,-35.84000015
-1674,-1044,2895,0,0,0,11.40999985,-18.53000069,-35.84000015
-1609,56,2950,-114,0,0,11.40999985,-18.53000069,-35.84000015
-1609,56,2950,-114,0,0,11.40999985,-18.53000069,-35.84000015
-1609,56,2950,-114,0,0,11.40999985,-18.53000069,-35.84000015
-1609,56,2950,-114,0,0,11.40999985,-18.53000069,-35.84000015
-1609,56,2950,-114,0,0,11.40999985,-18.53000069,-35.84000015
-1609,56,2950,-114,0,0,11.40999985,-18.53000069,-35.84000015
-1609,56,2950,-114,0,0,11.40999985,-18.53000069,-35.84000015
-1609,56,2950,-114,0,0,11.40999985,-18.53000069,-35.84000015
-1115,-177,5105,-57,-57,0,11.40999985,-18.53000069,-35.84000015
-1115,-177,5105,-57,-57,0,11.40999985,-18.53000069,-35.84000015
-1115,-177,5105,-57,-57,0,11.40999985,-18.53000069,-35.84000015
-1115,-177,5105,-57,-57,0,11.40999985,-18.53000069,-35.84000015
-1115,-177,5105,-57,-57,0,11.40999985,-18.53000069,-35.84000015
-1115,-177,5105,-57,-57,0,11.40999985,-18.53000069,-35.84000015
-1115,-177,5105,-57,-57,0,11.40999985,-18.53000069,-35.84000015
-1115,-177,5105,-57,-57,0,11.40999985,-18.53000069,-35.84000015
-543,-1634,7634,114,57,0,11.40999985,-18.53000069,-35.84000015
-543,-1634,7634,114,57,0,11.40999985,-18.53000069,-35.84000015
-543,-1634,7634,114,57,0,11.40999985,-18.53000069,-35.84000015
-543,-1634,7634,114,57,0,11.40999985,-18.53000069,-35.84000015
-543,-1634,7634,114,57,0,11.40999985,-18.53000069,-35.84000015
-543,-1634,7634,114,57,0,11.40999985,-18.53000069,-35.84000015
-543,-1634,7634,114,57,0,11.40999985,-18.53000069,-35.84000015
-1418,-2499,4678,57,57,0,11.40999985,-18.53000069,-35.84000015
-1418,-2499,4678,57,57,0,11.40999985,-18.53000069,-35.84000015
-1418,-2499,4678,57,57,0,11.40999985,-18.53000069,-35.84000015
-1418,-2499,4678,57,57,0,11.40999985,-18.53000069,-35.84000015
-1418,-2499,4678,57,57,0,11.40999985,-18.53000069,-35.84000015
-1418,-2499,4678,57,57,0,11.40999985,-18.53000069,-35.84000015
-1418,-2499,4678,57,57,0,11.40999985,-18.53000069,-35.84000015
-1418,-2499,4678,57,57,0,11.40999985,-18.53000069,-35.84000015
-1424,-886,3836,-57,0,0,11.40999985,-18.53000069,-35.84000015
-1424,-886,3836,-57,0,0,11.40999985,-18.53000069,-35.84000015
-1424,-886,3836,-57,0,0,11.40999985,-18.53000069,-35.84000015
-1424,-886,3836,-57,0,0,11.40999985,-18.53000069,-35.84000015
-1424,-886,3836,-57,0,0,11.40999985,-18.53000069,-35.84000015
-1424,-886,3836,-57,0,0,11.40999985,-18.53000069,-35.84000015
-1424,-886,3836,-57,0,0,11.40999985,-18.53000069,-35.84000015
-1386,-601,5161,0,-114,0,11.40999985,-18.53000069,-35.84000015
-1386,-601,5161,0,-114,0,11.40999985,-18.53000069,-35.84000015
-1386,-601,5161,0,-114,0,11.40999985,-18.53000069,-35.84000015
-1386,-601,5161,0,-114,0,11.40999985,-18.53000069,-35.84000015
-1386,-601,5161,0,-114,0,11.40999985,-18.53000069,-35.84000015
-1386,-601,5161,0,-114,0,11.40999985,-18.53000069,-35.84000015
-1386,-601,5161,0,-114,0,11.40999985,-18.53000069,-35.84000015
-1386,-601,5161,0,-114,0,11.40999985,-18.53000069,-35.84000015
-604,-1205,8004,0,57,0,11.40999985,-18.53000069,-35.84000015
-604,-1205,8004,0,57,0,11.40999985,-18.53000069,-35.84000015
-604,-1205,8004,0,57,0,11.40999985,-18.53000069,-35.84000015
-604,-1205,8004,0,57,0,11.40999985,-18.53000069,-35.84000015
-604,-1205,8004,0,57,0,11.40999985,-18.53000069,-35.84000015
-604,-1205,8004,0,57,0,11.40999985,-18.53000069,-35.84000015
-604,-1205,8004,0,57,0,11.40999985,-18.53000069,-35.84000015
-1720,-1991,4307,0,0,0,11.40999985,-18.53000069,-35.84000015
-1720,-1991,4307,0,0,0,11.40999985,-18.53000069,-35.84000015
-1720,-1991,4307,0,0,0,11.40999985,-18.53000069,-35.84000015
-1720,-1991,4307,0,0,0,11.40999985,-18.53000069,-35.84000015
-1720,-1991,4307,0,0,0,11.40999985,-18.53000069,-35.84000015
-1720,-1991,4307,0,0,0,11.40999985,-18.53000069,-35.84000015
-1720,-1991,4307,0,0,0,11.40999985,-18.53000069,-35.84000015
-1720,-1991,4307,0,0,0,11.40999985,-18.53000069,-35.84000015
-1469,-716,3802,0,0,0,11.40999985,-18.53000069,-35.84000015
-1469,-716,3802,0,0,0,11.40999985,-18.53000069,-35.84000015
-1469,-716,3802,0,0,0,11.40999985,-18.53000069,-35.84000015
-1469,-716,3802,0,0,0,11.40999985,-18.53000069,-35.84000015
-1469,-716,3802,0,0,0,11.40999985,-18.53000069,-35.84000015
-1469,-716,3802,0,0,0,11.40999985,-18.53000069,-35.84000015
-1469,-716,3802,0,0,0,11.40999985,-18.53000069,-35.84000015
-1469,-716,3802,0,0,0,11.40999985,-18.53000069,-35.84000015
-1355,-332,5289,0,-114,0,11.40999985,-18.53000069,-35.84000015
-1355,-332,5289,0,-114,0,11.40999985,-18.53000069,-35.84000015
-1355,-332,5289,0,-114,0,11.40999985,-18.53000069,-35.84000015
-1355,-332,5289,0,-114,0,11.40999985,-18.53000069,-35.84000015
-1355,-332,5289,0,-114,0,11.40999985,-18.53000069,-35.84000015
-1355,-332,5289,0,-114,0,11.40999985,-18.53000069,-35.84000015
-1355,-332,5289,0,-114,0,11.40999985,-18.53000069,-35.84000015
-1355,-332,5289,0,-114,0,7.820000172,-18.62999916,-37.13999939
-1355,-332,5289,0,-114,0,7.820000172,-18.62999916,-37.13999939
-906,-953,7531,0,57,0,7.820000172,-18.62999916,-37.13999939
-906,-953,7531,0,57,0,7.820000172,-18.62999916,-37.13999939
-906,-953,7531,0,57,0,7.820000172,-18.62999916,-37.13999939
-906,-953,7531,0,57,0,7.820000172,-18.62999916,-37.13999939
-906,-953,7531,0,57,0,7.820000172,-18.62999916,-37.13999939
-906,-953,7531,0,57,0,7.820000172,-18.62999916,-37.13999939
-1752,-1405,4376,57,0,0,7.820000172,-18.62999916,-37.13999939
-1752,-1405,4376,57,0,0,7.820000172,-18.62999916,-37.13999939
-1752,-1405,4376,57,0,0,7.820000172,-18.62999916,-37.13999939
-1752,-1405,4376,57,0,0,7.820000172,-18.62999916,-37.13999939
-1752,-1405,4376,57,0,0,7.820000172,-18.62999916,-37.13999939
-1752,-1405,4376,57,0,0,7.820000172,-18.62999916,-37.13999939
-1752,-1405,4376,57,0,0,7.820000172,-18.62999916,-37.13999939
-1648,-436,4007,0,0,0,7.820000172,-18.62999916,-37.13999939
-1648,-436,4007,0,0,0,7.820000172,-18.62999916,-37.13999939
-1648,-436,4007,0,0,0,7.820000172,-18.62999916,-37.13999939
-1648,-436,4007,0,0,0,7.820000172,-18.62999916,-37.13999939
-1648,-436,4007,0,0,0,7.820000172,-18.62999916,-37.13999939
-1648,-436,4007,0,0,0,7.820000172,-18.62999916,-37.13999939
-1648,-436,4007,0,0,0,7.820000172,-18.62999916,-37.13999939
-1648,-436,4007,0,0,0,7.820000172,-18.62999916,-37.13999939
-1122,-296,6639,0,-57,0,7.820000172,-18.62999916,-37.13999939
-1122,-296,6639,0,-57,0,7.820000172,-18.62999916,-37.13999939
-1122,-296,6639,0,-57,0,7.820000172,-18.62999916,-37.13999939
-1122,-296,6639,0,-57,0,7.820000172,-18.62999916,-37.13999939
-1122,-296,6639,0,-57,0,7.820000172,-18.62999916,-37.13999939
-1122,-296,6639,0,-57,0,7.820000172,-18.62999916,-37.13999939
-1122,-296,6639,0,-57,0,7.820000172,-18.62999916,-37.13999939
-1122,-296,6639,0,-57,0,7.820000172,-18.62999916,-37.13999939
-737,-285,7943,0,57,0,7.820000172,-18.62999916,-37.13999939
-737,-285,7943,0,57,0,7.820000172,-18.62999916,-37.13999939
-737,-285,7943,0,57,0,7.820000172,-18.62999916,-37.13999939
-737,-285,7943,0,57,0,7.820000172,-18.62999916,-37.13999939
-737,-285,7943,0,57,0,7.820000172,-18.62999916,-37.13999939
-737,-285,7943,0,57,0,7.820000172,-18.62999916,-37.13999939
-737,-285,7943,0,57,0,7.820000172,-18.62999916,-37.13999939
-1782,-315,3551,0,0,0,7.820000172,-18.62999916,-37.13999939
-1782,-315,3551,0,0,0,7.820000172,-18.62999916,-37.13999939
-1782,-315,3551,0,0,0,7.820000172,-18.62999916,-37.13999939
-1782,-315,3551,0,0,0,7.820000172,-18.62999916,-37.13999939
-1782,-315,3551,0,0,0,7.820000172,-18.62999916,-37.13999939
-1782,-315,3551,0,0,0,7.820000172,-18.62999916,-37.13999939
-1782,-315,3551,0,0,0,7.820000172,-18.62999916,-37.13999939
-1804,365,3715,-114,-57,0,7.820000172,-18.62999916,-37.13999939
-1804,365,3715,-114,-57,0,7.820000172,-18.62999916,-37.13999939
-1804,365,3715,-114,-57,0,7.820000172,-18.62999916,-37.13999939
-1804,365,3715,-114,-57,0,7.820000172,-18.62999916,-37.13999939
-1804,365,3715,-114,-57,0,7.820000172,-18.62999916,-37.13999939
-1804,365,3715,-114,-57,0,7.820000172,-18.62999916,-37.13999939
-1804,365,3715,-114,-57,0,7.820000172,-18.62999916,-37.13999939
-1804,365,3715,-114,-57,0,7.820000172,-18.62999916,-37.13999939
-874,1,7377,0,0,0,7.820000172,-18.62999916,-37.13999939
-874,1,7377,0,0,0,7.820000172,-18.62999916,-37.13999939
-874,1,7377,0,0,0,7.820000172,-18.62999916,-37.13999939
-874,1,7377,0,0,0,7.820000172,-18.62999916,-37.13999939
-874,1,7377,0,0,0,7.820000172,-18.62999916,-37.13999939
-874,1,7377,0,0,0,7.820000172,-18.62999916,-37.13999939
-874,1,7377,0,0,0,7.820000172,-18.62999916,-37.13999939
-874,1,7377,0,0,0,7.820000172,-18.62999916,-37.13999939
-941,-223,7045,0,0,0,7.820000172,-18.62999916,-37.13999939
-941,-223,7045,0,0,0,7.820000172,-18.62999916,-37.13999939
-941,-223,7045,0,0,0,7.820000172,-18.62999916,-37.13999939
-941,-223,7045,0,0,0,7.820000172,-18.62999916,-37.13999939
-941,-223,7045,0,0,0,7.820000172,-18.62999916,-37.13999939
-941,-223,7045,0,0,0,7.820000172,-18.62999916,-37.13999939
-941,-223,7045,0,0,0,7.820000172,-18.62999916,-37.13999939
-1858,-297,2704,0,0,0,7.820000172,-18.62999916,-37.13999939
-1858,-297,2704,0,0,0,7.820000172,-18.62999916,-37.13999939
-1858,-297,2704,0,0,0,7.820000172,-18.62999916,-37.13999939
-1858,-297,2704,0,0,0,7.820000172,-18.62999916,-37.13999939
-1858,-297,2704,0,0,0,7.820000172,-18.62999916,-37.13999939
-1858,-297,2704,0,0,0,7.820000172,-18.62999916,-37.13999939
-1858,-297,2704,0,0,0,7.820000172,-18.62999916,-37.13999939
-1858,-297,2704,0,0,0,7.820000172,-18.62999916,-37.13999939
-1508,-226,3891,-57,-114,0,7.820000172,-18.62999916,-37.13999939
-1508,-226,3891,-57,-114,0,7.820000172,-18.62999916,-37.13999939
-1508,-226,3891,-57,-114,0,7.820000172,-18.62999916,-37.13999939
-1508,-226,3891,-57,-114,0,7.820000172,-18.62999916,-37.13999939
-1508,-226,3891,-57,-114,0,7.820000172,-18.62999916,-37.13999939
-1508,-226,3891,-57,-114,0,7.820000172,-18.62999916,-37.13999939
-1508,-226,3891,-57,-114,0,7.820000172,-18.62999916,-37.13999939
-1508,-226,3891,-57,-114,0,4.860000134,-17.56999969,-37.77000046
-1508,-226,3891,-57,-114,0,4.860000134,-17.56999969,-37.77000046
13,-725,7964,0,57,0,4.860000134,-17.56999969,-37.77000046
13,-725,7964,0,57,0,4.860000134,-17.56999969,-37.77000046
13,-725,7964,0,57,0,4.860000134,-17.56999969,-37.77000046
13,-725,7964,0,57,0,4.860000134,-17.56999969,-37.77000046
13,-725,7964,0,57,0,4.860000134,-17.56999969,-37.77000046
13,-725,7964,0,57,0,4.860000134,-17.56999969,-37.77000046
-393,-668,6327,0,0,0,4.860000134,-17.56999969,-37.77000046
-393,-668,6327,0,0,0,4.860000134,-17.56999969,-37.77000046
-393,-668,6327,0,0,0,4.860000134,-17.56999969,-37.77000046
-393,-668,6327,0,0,0,4.860000134,-17.56999969,-37.77000046
-393,-668,6327,0,0,0,4.860000134,-17.56999969,-37.77000046
-393,-668,6327,0,0,0,4.860000134,-17.56999969,-37.77000046
-393,-668,6327,0,0,0,4.860000134,-17.56999969,-37.77000046
-393,-668,6327,0,0,0,4.860000134,-17.56999969,-37.77000046
-1817,-1030,2421,-57,0,0,4.860000134,-17.56999969,-37.77000046
-1817,-1030,2421,-57,0,0,4.860000134,-17.56999969,-37.77000046
-1817,-1030,2421,-57,0,0,4.860000134,-17.56999969,-37.77000046
-1817,-1030,2421,-57,0,0,4.860000134,-17.56999969,-37.77000046
-1817,-1030,2421,-57,0,0,4.860000134,-17.56999969,-37.77000046
-1817,-1030,2421,-57,0,0,4.860000134,-17.56999969,-37.77000046
-1817,-1030,2421,-57,0,0,4.860000134,-17.56999969,-37.77000046
-380,-1236,5927,0,0,0,4.860000134,-17.56999969,-37.77000046
-380,-1236,5927,0,0,0,4.860000134,-17.56999969,-37.77000046
-380,-1236,5927,0,0,0,4.860000134,-17.56999969,-37.77000046
-380,-1236,5927,0,0,0,4.860000134,-17.56999969,-37.77000046
-380,-1236,5927,0,0,0,4.860000134,-17.56999969,-37.77000046
-380,-1236,5927,0,0,0,4.860000134,-17.56999969,-37.77000046
-380,-1236,5927,0,0,0,4.860000134,-17.56999969,-37.77000046
-380,-1236,5927,0,0,0,4.860000134,-17.56999969,-37.77000046
-143,-774,6804,0,0,0,4.860000134,-17.56999969,-37.77000046
-143,-774,6804,0,0,0,4.860000134,-17.56999969,-37.77000046
-143,-774,6804,0,0,0,4.860000134,-17.56999969,-37.77000046
-143,-774,6804,0,0,0,4.860000134,-17.56999969,-37.77000046
-143,-774,6804,0,0,0,4.860000134,-17.56999969,-37.77000046
-143,-774,6804,0,0,0,4.860000134,-17.56999969,-37.77000046
-143,-774,6804,0,0,0,4.860000134,-17.56999969,-37.77000046
-310,-567,5296,-57,0,0,4.860000134,-17.56999969,-37.77000046
-310,-567,5296,-57,0,0,4.860000134,-17.56999969,-37.77000046
-310,-567,5296,-57,0,0,4.860000134,-17.56999969,-37.77000046
-310,-567,5296,-57,0,0,4.860000134,-17.56999969,-37.77000046
-310,-567,5296,-57,0,0,4.860000134,-17.56999969,-37.77000046
-310,-567,5296,-57,0,0,4.860000134,-17.56999969,-37.77000046
-310,-567,5296,-57,0,0,4.860000134,-17.56999969,-37.77000046
-310,-567,5296,-57,0,0,4.860000134,-17.56999969,-37.77000046
-515,-1754,5000,0,0,0,4.860000134,-17.56999969,-37.77000046
-515,-1754,5000,0,0,0,4.860000134,-17.56999969,-37.77000046
-515,-1754,5000,0,0,0,4.860000134,-17.56999969,-37.77000046
-515,-1754,5000,0,0,0,4.860000134,-17.56999969,-37.77000046
-515,-1754,5000,0,0,0,4.860000134,-17.56999969,-37.77000046
-515,-1754,5000,0,0,0,4.860000134,-17.56999969,-37.77000046
-515,-1754,5000,0,0,0,4.860000134,-17.56999969,-37.77000046
-151,-1387,6451,0,57,0,4.860000134,-17.56999969,-37.77000046
-151,-1387,6451,0,57,0,4.860000134,-17.56999969,-37.77000046
-151,-1387,6451,0,57,0,4.860000134,-17.56999969,-37.77000046
-151,-1387,6451,0,57,0,4.860000134,-17.56999969,-37.77000046
-151,-1387,6451,0,57,0,4.860000134,-17.56999969,-37.77000046
-151,-1387,6451,0,57,0,4.860000134,-17.56999969,-37.77000046
-151,-1387,6451,0,57,0,4.860000134,-17.56999969,-37.77000046
-151,-1387,6451,0,57,0,4.860000134,-17.56999969,-37.77000046
-126,-600,6185,0,0,0,4.860000134,-17.56999969,-37.77000046
-126,-600,6185,0,0,0,4.860000134,-17.56999969,-37.77000046
-126,-600,6185,0,0,0,4.860000134,-17.56999969,-37.77000046
-126,-600,6185,0,0,0,4.860000134,-17.56999969,-37.77000046
-126,-600,6185,0,0,0,4.860000134,-17.56999969,-37.77000046
-126,-600,6185,0,0,0,4.860000134,-17.56999969,-37.77000046
-126,-600,6185,0,0,0,4.860000134,-17.56999969,-37.77000046
-126,-600,6185,0,0,0,4.860000134,-17.56999969,-37.77000046
458,-1293,8007,0,0,0,4.860000134,-17.56999969,-37.77000046
458,-1293,8007,0,0,0,4.860000134,-17.56999969,-37.77000046
458,-1293,8007,0,0,0,4.860000134,-17.56999969,-37.77000046
458,-1293,8007,0,0,0,4.860000134,-17.56999969,-37.77000046
458,-1293,8007,0,0,0,4.860000134,-17.56999969,-37.77000046
458,-1293,8007,0,0,0,4.860000134,-17.56999969,-37.77000046
458,-1293,8007,0,0,0,4.860000134,-17.56999969,-37.77000046
-915,-1799,4894,0,0,0,4.860000134,-17.56999969,-37.77000046
-915,-1799,4894,0,0,0,4.860000134,-17.56999969,-37.77000046
-915,-1799,4894,0,0,0,4.860000134,-17.56999969,-37.77000046
-915,-1799,4894,0,0,0,4.860000134,-17.56999969,-37.77000046
-915,-1799,4894,0,0,0,4.860000134,-17.56999969,-37.77000046
-915,-1799,4894,0,0,0,4.860000134,-17.56999969,-37.77000046
-915,-1799,4894,0,0,0,4.860000134,-17.56999969,-37.77000046
-915,-1799,4894,0,0,0,9.350000381,-11.77000046,-40.04000092
-915,-1799,4894,0,0,0,9.350000381,-11.77000046,-40.04000092
-544,-988,5160,0,-57,0,9.350000381,-11.77000046,-40.04000092
-544,-988,5160,0,-57,0,9.350000381,-11.77000046,-40.04000092
-544,-988,5160,0,-57,0,9.350000381,-11.77000046,-40.04000092
-544,-988,5160,0,-57,0,9.350000381,-11.77000046,-40.04000092
-544,-988,5160,0,-57,0,9.350000381,-11.77000046,-40.04000092
-544,-988,5160,0,-57,0,9.350000381,-11.77000046,-40.04000092
307,-1098,8200,0,57,0,9.350000381,-11.77000046,-40.04000092
307,-1098,8200,0,57,0,9.350000381,-11.77000046,-40.04000092
307,-1098,8200,0,57,0,9.350000381,-11.77000046,-40.04000092
307,-1098,8200,0,57,0,9.350000381,-11.77000046,-40.04000092
307,-1098,8200,0,57,0,9.350000381,-11.77000046,-40.04000092
307,-1098,8200,0,57,0,9.350000381,-11.77000046,-40.04000092
307,-1098,8200,0,57,0,9.350000381,-11.77000046,-40.04000092
-508,-837,6152,0,0,0,9.350000381,-11.77000046,-40.04000092
-508,-837,6152,0,0,0,9.350000381,-11.77000046,-40.04000092
-508,-837,6152,0,0,0,9.350000381,-11.77000046,-40.04000092
-508,-837,6152,0,0,0,9.350000381,-11.77000046,-40.04000092
-508,-837,6152,0,0,0,9.350000381,-11.77000046,-40.04000092
-508,-837,6152,0,0,0,9.350000381,-11.77000046,-40.04000092
-508,-837,6152,0,0,0,9.350000381,-11.77000046,-40.04000092
-508,-837,6152,0,0,0,9.350000381,-11.77000046,-40.04000092
-1237,-1295,2888,0,-114,0,9.350000381,-11.77000046,-40.04000092
-1237,-1295,2888,0,-114,0,9.350000381,-11.77000046,-40.04000092
-1237,-1295,2888,0,-114,0,9.350000381,-11.77000046,-40.04000092
-1237,-1295,2888,0,-114,0,9.350000381,-11.77000046,-40.04000092
-1237,-1295,2888,0,-114,0,9.350000381,-11.77000046,-40.04000092
-1237,-1295,2888,0,-114,0,9.350000381,-11.77000046,-40.04000092
-1237,-1295,2888,0,-114,0,9.350000381,-11.77000046,-40.04000092
-1237,-1295,2888,0,-114,0,9.350000381,-11.77000046,-40.04000092
-245,-1300,6709,0,57,0,9.350000381,-11.77000046,-40.04000092
-245,-1300,6709,0,57,0,9.350000381,-11.77000046,-40.04000092
-245,-1300,6709,0,57,0,9.350000381,-11.77000046,-40.04000092
-245,-1300,6709,0,57,0,9.350000381,-11.77000046,-40.04000092
-245,-1300,6709,0,57,0,9.350000381,-11.77000046,-40.04000092
-245,-1300,6709,0,57,0,9.350000381,-11.77000046,-40.04000092
-245,-1300,6709,0,57,0,9.350000381,-11.77000046,-40.04000092
-513,-689,6399,0,0,0,9.350000381,-11.77000046,-40.04000092
-513,-689,6399,0,0,0,9.350000381,-11.77000046,-40.04000092
-513,-689,6399,0,0,0,9.350000381,-11.77000046,-40.04000092
-513,-689,6399,0,0,0,9.350000381,-11.77000046,-40.04000092
-513,-689,6399,0,0,0,9.350000381,-11.77000046,-40.04000092
-513,-689,6399,0,0,0,9.350000381,-11.77000046,-40.04000092
-513,-689,6399,0,0,0,9.350000381,-11.77000046,-40.04000092
-513,-689,6399,0,0,0,9.350000381,-11.77000046,-40.04000092
-688,-512,5464,0,0,0,9.350000381,-11.77000046,-40.04000092
-688,-512,5464,0,0,0,9.350000381,-11.77000046,-40.04000092
-688,-512,5464,0,0,0,9.350000381,-11.77000046,-40.04000092
-688,-512,5464,0,0,0,9.350000381,-11.77000046,-40.04000092
-688,-512,5464,0,0,0,9.350000381,-11.77000046,-40.04000092
-688,-512,5464,0,0,0,9.350000381,-11.77000046,-40.04000092
-688,-512,5464,0,0,0,9.350000381,-11.77000046,-40.04000092
-1277,-1184,4767,114,-57,0,9.350000381,-11.77000046,-40.04000092
-1277,-1184,4767,114,-57,0,9.350000381,-11.77000046,-40.04000092
-1277,-1184,4767,114,-57,0,9.350000381,-11.77000046,-40.04000092
-1277,-1184,4767,114,-57,0,9.350000381,-11.77000046,-40.04000092
-1277,-1184,4767,114,-57,0,9.350000381,-11.77000046,-40.04000092
-1277,-1184,4767,114,-57,0,9.350000381,-11.77000046,-40.04000092
-1277,-1184,4767,114,-57,0,9.350000381,-11.77000046,-40.04000092
-1277,-1184,4767,114,-57,0,9.350000381,-11.77000046,-40.04000092
-409,-536,7217,0,0,0,9.350000381,-11.77000046,-40.04000092
-409,-536,7217,0,0,0,9.350000381,-11.77000046,-40.04000092
-409,-536,7217,0,0,0,9.350000381,-11.77000046,-40.04000092
-409,-536,7217,0,0,0,9.350000381,-11.77000046,-40.04000092
-409,-536,7217,0,0,0,9.350000381,-11.77000046,-40.04000092
-409,-536,7217,0,0,0,9.350000381,-11.77000046,-40.04000092
-409,-536,7217,0,0,0,9.350000381,-11.77000046,-40.04000092
-409,-536,7217,0,0,0,9.350000381,-11.77000046,-40.04000092
-170,-50,8088,0,0,0,9.350000381,-11.77000046,-40.04000092
-170,-50,8088,0,0,0,9.350000381,-11.77000046,-40.04000092
-170,-50,8088,0,0,0,9.350000381,-11.77000046,-40.04000092
-170,-50,8088,0,0,0,9.350000381,-11.77000046,-40.04000092
-170,-50,8088,0,0,0,9.350000381,-11.77000046,-40.04000092
-170,-50,8088,0,0,0,9.350000381,-11.77000046,-40.04000092
-170,-50,8088,0,0,0,9.350000381,-11.77000046,-40.04000092
-520,186,6955,-57,0,0,9.350000381,-11.77000046,-40.04000092
-520,186,6955,-57,0,0,9.350000381,-11.77000046,-40.04000092
-520,186,6955,-57,0,0,9.350000381,-11.77000046,-40.04000092
-520,186,6955,-57,0,0,9.350000381,-11.77000046,-40.04000092
-520,186,6955,-57,0,0,9.350000381,-11.77000046,-40.04000092
-520,186,6955,-57,0,0,9.350000381,-11.77000046,-40.04000092
-520,186,6955,-57,0,0,9.350000381,-11.77000046,-40.04000092
-520,186,6955,-57,0,0,9.350000381,-11.77000046,-40.04000092
-520,186,6955,-57,0,0,11.94999981,-7.75,-43.72000122
-1285,-15,4063,-229,0,0,11.94999981,-7.75,-43.72000122
-1285,-15,4063,-229,0,0,11.94999981,-7.75,-43.72000122
-1285,-15,4063,-229,0,0,11.94999981,-7.75,-43.72000122
-1285,-15,4063,-229,0,0,11.94999981,-7.75,-43.72000122
-1285,-15,4063,-229,0,0,11.94999981,-7.75,-43.72000122
-1285,-15,4063,-229,0,0,11.94999981,-7.75,-43.72000122
-840,-243,5857,-114,0,0,11.94999981,-7.75,-43.72000122
-840,-243,5857,-114,0,0,11.94999981,-7.75,-43.72000122
-840,-243,5857,-114,0,0,11.94999981,-7.75,-43.72000122
-840,-243,5857,-114,0,0,11.94999981,-7.75,-43.72000122
-840,-243,5857,-114,0,0,11.94999981,-7.75,-43.72000122
-840,-243,5857,-114,0,0,11.94999981,-7.75,-43.72000122
-840,-243,5857,-114,0,0,11.94999981,-7.75,-43.72000122
-840,-243,5857,-114,0,0,11.94999981,-7.75,-43.72000122
-509,-1217,7028,0,0,0,11.94999981,-7.75,-43.72000122
-509,-1217,7028,0,0,0,11.94999981,-7.75,-43.72000122
-509,-1217,7028,0,0,0,11.94999981,-7.75,-43.72000122
-509,-1217,7028,0,0,0,11.94999981,-7.75,-43.72000122
-509,-1217,7028,0,0,0,11.94999981,-7.75,-43.72000122
-509,-1217,7028,0,0,0,11.94999981,-7.75,-43.72000122
-509,-1217,7028,0,0,0,11.94999981,-7.75,-43.72000122
-509,-1217,7028,0,0,0,11.94999981,-7.75,-43.72000122
-477,-2602,7232,-229,57,0,11.94999981,-7.75,-43.72000122
-477,-2602,7232,-229,57,0,11.94999981,-7.75,-43.72000122
-477,-2602,7232,-229,57,0,11.94999981,-7.75,-43.72000122
-477,-2602,7232,-229,57,0,11.94999981,-7.75,-43.72000122
-477,-2602,7232,-229,57,0,11.94999981,-7.75,-43.72000122
-477,-2602,7232,-229,57,0,11.94999981,-7.75,-43.72000122
-477,-2602,7232,-229,57,0,11.94999981,-7.75,-43.72000122
-971,-3190,6207,171,0,0,11.94999981,-7.75,-43.72000122
-971,-3190,6207,171,0,0,11.94999981,-7.75,-43.72000122
-971,-3190,6207,171,0,0,11.94999981,-7.75,-43.72000122
-971,-3190,6207,171,0,0,11.94999981,-7.75,-43.72000122
-971,-3190,6207,171,0,0,11.94999981,-7.75,-43.72000122
-971,-3190,6207,171,0,0,11.94999981,-7.75,-43.72000122
-971,-3190,6207,171,0,0,11.94999981,-7.75,-43.72000122
-971,-3190,6207,171,0,0,11.94999981,-7.75,-43.72000122
-901,-1707,6490,57,0,0,11.94999981,-7.75,-43.72000122
-901,-1707,6490,57,0,0,11.94999981,-7.75,-43.72000122
-901,-1707,6490,57,0,0,11.94999981,-7.75,-43.72000122
-901,-1707,6490,57,0,0,11.94999981,-7.75,-43.72000122
-901,-1707,6490,57,0,0,11.94999981,-7.75,-43.72000122
-901,-1707,6490,57,0,0,11.94999981,-7.75,-43.72000122
-901,-1707,6490,57,0,0,11.94999981,-7.75,-43.72000122
-904,-251,6403,-57,0,0,11.94999981,-7.75,-43.72000122
-904,-251,6403,-57,0,0,11.94999981,-7.75,-43.72000122
-904,-251,6403,-57,0,0,11.94999981,-7.75,-43.72000122
-904,-251,6403,-57,0,0,11.94999981,-7.75,-43.72000122
-904,-251,6403,-57,0,0,11.94999981,-7.75,-43.72000122
-904,-251,6403,-57,0,0,11.94999981,-7.75,-43.72000122
-904,-251,6403,-57,0,0,11.94999981,-7.75,-43.72000122
-904,-251,6403,-57,0,0,11.94999981,-7.75,-43.72000122
-957,-287,6201,-171,-57,0,11.94999981,-7.75,-43.72000122
-957,-287,6201,-171,-57,0,11.94999981,-7.75,-43.72000122
-957,-287,6201,-171,-57,0,11.94999981,-7.75,-43.72000122
-957,-287,6201,-171,-57,0,11.94999981,-7.75,-43.72000122
-957,-287,6201,-171,-57,0,11.94999981,-7.75,-43.72000122
-957,-287,6201,-171,-57,0,11.94999981,-7.75,-43.72000122
-957,-287,6201,-171,-57,0,11.94999981,-7.75,-43.72000122
-957,-287,6201,-171,-57,0,11.94999981,-7.75,-43.72000122
-712,-1292,6527,-114,0,0,11.94999981,-7.75,-43.72000122
-712,-1292,6527,-114,0,0,11.94999981,-7.75,-43.72000122
-712,-1292,6527,-114,0,0,11.94999981,-7.75,-43.72000122
-712,-1292,6527,-114,0,0,11.94999981,-7.75,-43.72000122
-712,-1292,6527,-114,0,0,11.94999981,-7.75,-43.72000122
-712,-1292,6527,-114,0,0,11.94999981,-7.75,-43.72000122
-712,-1292,6527,-114,0,0,11.94999981,-7.75,-43.72000122
-473,-1242,7443,-114,0,0,11.94999981,-7.75,-43.72000122
-473,-1242,7443,-114,0,0,11.94999981,-7.75,-43.72000122
-473,-1242,7443,-114,0,0,11.94999981,-7.75,-43.72000122
-473,-1242,7443,-114,0,0,11.94999981,-7.75,-43.72000122
-473,-1242,7443,-114,0,0,11.94999981,-7.75,-43.72000122
-473,-1242,7443,-114,0,0,11.94999981,-7.75,-43.72000122
-473,-1242,7443,-114,0,0,11.94999981,-7.75,-43.72000122
-127,-1610,7824,-57,57,0,11.94999981,-7.75,-43.72000122
-127,-1610,7824,-57,57,0,11.94999981,-7.75,-43.72000122
-127,-1610,7824,-57,57,0,11.94999981,-7.75,-43.72000122
-127,-1610,7824,-57,57,0,11.94999981,-7.75,-43.72000122
-127,-1610,7824,-57,57,0,11.94999981,-7.75,-43.72000122
-127,-1610,7824,-57,57,0,11.94999981,-7.75,-43.72000122
-127,-1610,7824,-57,57,0,11.94999981,-7.75,-43.72000122
-127,-1610,7824,-57,57,0,11.94999981,-7.75,-43.72000122
-127,-1610,7824,-57,57,0,10.89999962,-29.84000015,-44.02999878
-127,-1610,7824,-57,57,0,10.89999962,-29.84000015,-44.02999878
-322,-2911,7695,57,57,57,10.89999962,-29.84000015,-44.02999878
-322,-2911,7695,57,57,57,10.89999962,-29.84000015,-44.02999878
-322,-2911,7695,57,57,57,10.89999962,-29.84000015,-44.02999878
-322,-2911,7695,57,57,57,10.89999962,-29.84000015,-44.02999878
-322,-2911,7695,57,57,57,10.89999962,-29.84000015,-44.02999878
-322,-2911,7695,57,57,57,10.89999962,-29.84000015,-44.02999878
-904,-3929,6968,171,0,57,10.89999962,-29.84000015,-44.02999878
-904,-3929,6968,171,0,57,10.89999962,-29.84000015,-44.02999878
-904,-3929,6968,171,0,57,10.89999962,-29.84000015,-44.02999878
-904,-3929,6968,171,0,57,10.89999962,-29.84000015,-44.02999878
-904,-3929,6968,171,0,57,10.89999962,-29.84000015,-44.02999878
-904,-3929,6968,171,0,57,10.89999962,-29.84000015,-44.02999878
-904,-3929,6968,171,0,57,10.89999962,-29.84000015,-44.02999878
-1060,-3349,7181,229,-57,0,10.89999962,-29.84000015,-44.02999878
-1060,-3349,7181,229,-57,0,10.89999962,-29.84000015,-44.02999878
-1060,-3349,7181,229,-57,0,10.89999962,-29.84000015,-44.02999878
-1060,-3349,7181,229,-57,0,10.89999962,-29.84000015,-44.02999878
-1060,-3349,7181,229,-57,0,10.89999962,-29.84000015,-44.02999878
-1060,-3349,7181,229,-57,0,10.89999962,-29.84000015,-44.02999878
-1060,-3349,7181,229,-57,0,10.89999962,-29.84000015,-44.02999878
-1060,-3349,7181,229,-57,0,10.89999962,-29.84000015,-44.02999878
-1141,-2204,7053,114,-57,0,10.89999962,-29.84000015,-44.02999878
-1141,-2204,7053,114,-57,0,10.89999962,-29.84000015,-44.02999878
-1141,-2204,7053,114,-57,0,10.89999962,-29.84000015,-44.02999878
-1141,-2204,7053,114,-57,0,10.89999962,-29.84000015,-44.02999878
-1141,-2204,7053,114,-57,0,10.89999962,-29.84000015,-44.02999878
-1141,-2204,7053,114,-57,0,10.89999962,-29.84000015,-44.02999878
-1141,-2204,7053,114,-57,0,10.89999962,-29.84000015,-44.02999878
-1212,-1440,6737,0,-114,0,10.89999962,-29.84000015,-44.02999878
-1212,-1440,6737,0,-114,0,10.89999962,-29.84000015,-44.02999878
-1212,-1440,6737,0,-114,0,10.89999962,-29.84000015,-44.02999878
-1212,-1440,6737,0,-114,0,10.89999962,-29.84000015,-44.02999878
-1212,-1440,6737,0,-114,0,10.89999962,-29.84000015,-44.02999878
-1212,-1440,6737,0,-114,0,10.89999962,-29.84000015,-44.02999878
-1212,-1440,6737,0,-114,0,10.89999962,-29.84000015,-44.02999878
-1212,-1440,6737,0,-114,0,10.89999962,-29.84000015,-44.02999878
-1030,-1360,6492,0,-114,0,10.89999962,-29.84000015,-44.02999878
-1030,-1360,6492,0,-114,0,10.89999962,-29.84000015,-44.02999878
-1030,-1360,6492,0,-114,0,10.89999962,-29.84000015,-44.02999878
-1030,-1360,6492,0,-114,0,10.89999962,-29.84000015,-44.02999878
-1030,-1360,6492,0,-114,0,10.89999962,-29.84000015,-44.02999878
-1030,-1360,6492,0,-114,0,10.89999962,-29.84000015,-44.02999878
-1030,-1360,6492,0,-114,0,10.89999962,-29.84000015,-44.02999878
-1030,-1360,6492,0,-114,0,10.89999962,-29.84000015,-44.02999878
122,-52,7325,-57,-57,0,10.89999962,-29.84000015,-44.02999878
122,-52,7325,-57,-57,0,10.89999962,-29.84000015,-44.02999878
122,-52,7325,-57,-57,0,10.89999962,-29.84000015,-44.02999878
122,-52,7325,-57,-57,0,10.89999962,-29.84000015,-44.02999878
122,-52,7325,-57,-57,0,10.89999962,-29.84000015,-44.02999878
122,-52,7325,-57,-57,0,10.89999962,-29.84000015,-44.02999878
122,-52,7325,-57,-57,0,10.89999962,-29.84000015,-44.02999878
1286,237,7769,-171,57,0,10.89999962,-29.84000015,-44.02999878
1286,237,7769,-171,57,0,10.89999962,-29.84000015,-44.02999878
1286,237,7769,-171,57,0,10.89999962,-29.84000015,-44.02999878
1286,237,7769,-171,57,0,10.89999962,-29.84000015,-44.02999878
1286,237,7769,-171,57,0,10.89999962,-29.84000015,-44.02999878
1286,237,7769,-171,57,0,10.89999962,-29.84000015,-44.02999878
1286,237,7769,-171,57,0,10.89999962,-29.84000015,-44.02999878
1286,237,7769,-171,57,0,10.89999962,-29.84000015,-44.02999878
1221,-543,7882,-114,229,57,10.89999962,-29.84000015,-44.02999878
1221,-543,7882,-114,229,57,10.89999962,-29.84000015,-44.02999878
1221,-543,7882,-114,229,57,10.89999962,-29.84000015,-44.02999878
1221,-543,7882,-114,229,57,10.89999962,-29.84000015,-44.02999878
1221,-543,7882,-114,229,57,10.89999962,-29.84000015,-44.02999878
1221,-543,7882,-114,229,57,10.89999962,-29.84000015,-44.02999878
1221,-543,7882,-114,229,57,10.89999962,-29.84000015,-44.02999878
-56,-1668,7356,0,114,57,10.89999962,-29.84000015,-44.02999878
-56,-1668,7356,0,114,57,10.89999962,-29.84000015,-44.02999878
-56,-1668,7356,0,114,57,10.89999962,-29.84000015,-44.02999878
-56,-1668,7356,0,114,57,10.89999962,-29.84000015,-44.02999878
-56,-1668,7356,0,114,57,10.89999962,-29.84000015,-44.02999878
-56,-1668,7356,0,114,57,10.89999962,-29.84000015,-44.02999878
-56,-1668,7356,0,114,57,10.89999962,-29.84000015,-44.02999878
